#     FILENAME=Skynet_59284_M31_20kpc_ABurns_52427_1405.A.onoff.cal.txt
#     BASENAME=Skynet_59284_M31_20kpc_ABurns_52427_1405
#      CONTROL=SKYNET
#     PROJCODE=Skynet_59284_M31_20kpc_ABurns_52427
#     DATAROOT=/raid/scratch/cyborg/SkynetData
#      DATADIR=/raid/scratch/cyborg
#     DATADIR2=/raid/scratch/cyborg/SkynetData/Skynet_59284_M31_20kpc_ABurns_5
#     SCANNAME=2019_06_26_10
#     SRC_NAME=M31_20kpc_ABurns
#     OBSERVER=unioncollege_21317
#     DATE_OBS=2021-03-11T12:34:22.190
#        OBSID=52427
#      SCANNUM=1405
#          MJD=59284.5238679
#          UTC=45262
#     SCANTYPE=onoff
#     DATAMODE=HIRES
#     RECEIVER=Rx1_2
#      OBSFREQ=1395.0000
# Actual_FREQ1=1420.4000,
# Actual_FREQ2=1420.4000
#    LO1Tuning=6870.4000
#     RFFILTER=1355_1435
#        OBSBW=-15.6250
#     EFFBANDW=15.6250
#        NCHAN=1024
#    STARTCHAN=51
#     STOPCHAN=972
#         TINT=0.3000
#         TBIN=0.00419430
#       ACCLEN=2048 
#     DURATION=206.40
#     EXPOSURE=156.28
#        FOCUS=37.071
#       RA,DEC=00:38:15.07, 40:06:59.49
#      RA(deg)=8.19006
#     DEC(deg)=40.11679
#   WIDTH(deg)=2.0936x0.0264
#    AZIM(deg)=56.0098
#    ELEV(deg)=23.6343
#     COORDREF=RA_DEC_
#         HREF=9.4917
#         VREF=40.1169
#      RADESYS=FK5
#       OFFSYS=RADEC
#      EQUINOX=2000.00
#     IFATTENS=21.00, 14.00
#   BALANCELEV=1.200 
#   POWER_XLYR=[1.09, 1.32] 
#       VELDEF=RADI-OBS 
#     VELOCITY=0.000 
#         NPOL=2 
#      POLMODE=Linear 
#      POLTYPE=XXYY 
#      WARNING=None 
#     NOISECAL=HI 
#       PRECAL=2 
#      POSTCAL=2 
#     CRYOTEMP=15 
#      BOXTEMP=26 
#         TSYS=XX1:34.54, YY1:42.00
#         TSYS=XX2:34.53, YY2:41.99
#         TCAL=XX1:9.17, YY1:10.07
#         TCAL=XX2:9.17, YY2:10.07
# Calibrated spectra: Tsys*(ON-OFF)/OFF 
#                
#                
#Freq1(MHz)         XX1          YY1   Freq2(MHz)       XX2         YY2 
   1427.43430       0.3920       0.5621    1427.43430       0.3919       0.5619
   1427.41904       0.3867       0.4677    1427.41904       0.3867       0.4676
   1427.40378       0.4414       0.4374    1427.40378       0.4413       0.4373
   1427.38853       0.3388       0.4647    1427.38853       0.3387       0.4645
   1427.37327       0.2994       0.4219    1427.37327       0.2994       0.4218
   1427.35801       0.3749       0.4601    1427.35801       0.3748       0.4600
   1427.34275       0.3408       0.3741    1427.34275       0.3407       0.3740
   1427.32749       0.3741       0.4589    1427.32749       0.3740       0.4588
   1427.31223       0.3498       0.3929    1427.31223       0.3497       0.3928
   1427.29697       0.4032       0.3867    1427.29697       0.4031       0.3866
   1427.28171       0.2364       0.4611    1427.28171       0.2364       0.4610
   1427.26646       0.3639       0.4209    1427.26646       0.3639       0.4208
   1427.25120       0.4808       0.4037    1427.25120       0.4807       0.4036
   1427.23594       0.3256       0.4662    1427.23594       0.3256       0.4661
   1427.22068       0.3595       0.5166    1427.22068       0.3594       0.5164
   1427.20542       0.4715       0.3654    1427.20542       0.4714       0.3653
   1427.19016       0.3516       0.4302    1427.19016       0.3515       0.4301
   1427.17490       0.3046       0.4244    1427.17490       0.3045       0.4243
   1427.15964       0.3679       0.3605    1427.15964       0.3678       0.3604
   1427.14438       0.3459       0.4738    1427.14438       0.3458       0.4737
   1427.12913       0.4143       0.4458    1427.12913       0.4143       0.4457
   1427.11387       0.2933       0.4542    1427.11387       0.2933       0.4541
   1427.09861       0.3486       0.4141    1427.09861       0.3485       0.4140
   1427.08335       0.3045       0.4216    1427.08335       0.3045       0.4215
   1427.06809       0.3148       0.4831    1427.06809       0.3148       0.4829
   1427.05283       0.4014       0.4162    1427.05283       0.4013       0.4160
   1427.03757       0.4261       0.3794    1427.03757       0.4260       0.3793
   1427.02231       0.3706       0.4014    1427.02231       0.3705       0.4013
   1427.00706       0.3855       0.4496    1427.00706       0.3854       0.4495
   1426.99180       0.4221       0.4204    1426.99180       0.4221       0.4203
   1426.97654       0.3081       0.4380    1426.97654       0.3080       0.4379
   1426.96128       0.3377       0.4593    1426.96128       0.3377       0.4592
   1426.94602       0.3820       0.4644    1426.94602       0.3819       0.4643
   1426.93076       0.3544       0.3879    1426.93076       0.3543       0.3878
   1426.91550       0.4041       0.4841    1426.91550       0.4041       0.4839
   1426.90024       0.3731       0.4483    1426.90024       0.3730       0.4482
   1426.88499       0.3991       0.3408    1426.88499       0.3991       0.3407
   1426.86973       0.3370       0.4295    1426.86973       0.3369       0.4294
   1426.85447       0.3911       0.3829    1426.85447       0.3910       0.3828
   1426.83921       0.4265       0.2797    1426.83921       0.4265       0.2797
   1426.82395       0.4509       0.4570    1426.82395       0.4509       0.4569
   1426.80869       0.4028       0.4180    1426.80869       0.4028       0.4178
   1426.79343       0.3677       0.4666    1426.79343       0.3676       0.4664
   1426.77817       0.3359       0.3878    1426.77817       0.3359       0.3877
   1426.76292       0.3575       0.3968    1426.76292       0.3575       0.3967
   1426.74766       0.4176       0.4487    1426.74766       0.4175       0.4485
   1426.73240       0.4169       0.4451    1426.73240       0.4168       0.4450
   1426.71714       0.3939       0.4318    1426.71714       0.3939       0.4317
   1426.70188       0.3987       0.4675    1426.70188       0.3986       0.4674
   1426.68662       0.3585       0.4009    1426.68662       0.3584       0.4007
   1426.67136       0.4002       0.4626    1426.67136       0.4001       0.4624
   1426.65610       0.3637       0.4538    1426.65610       0.3636       0.4536
   1426.64084       0.4028       0.4842    1426.64084       0.4028       0.4841
   1426.62559       0.4194       0.1985    1426.62559       0.4193       0.1984
   1426.61033       0.3934       0.4303    1426.61033       0.3933       0.4302
   1426.59507       0.4299       0.4313    1426.59507       0.4298       0.4311
   1426.57981       0.4392       0.3926    1426.57981       0.4391       0.3925
   1426.56455       0.3654       0.4947    1426.56455       0.3653       0.4946
   1426.54929       0.3459       0.4208    1426.54929       0.3459       0.4206
   1426.53403       0.3297       0.4350    1426.53403       0.3297       0.4349
   1426.51877       0.3820       0.3753    1426.51877       0.3819       0.3752
   1426.50352       0.4498       0.4096    1426.50352       0.4497       0.4095
   1426.48826       0.3720       0.4464    1426.48826       0.3720       0.4462
   1426.47300       0.3672       0.3913    1426.47300       0.3671       0.3912
   1426.45774       0.3642       0.3908    1426.45774       0.3641       0.3907
   1426.44248       0.3271       0.5047    1426.44248       0.3270       0.5045
   1426.42722       0.4692       0.4010    1426.42722       0.4691       0.4009
   1426.41196       0.3919       0.3689    1426.41196       0.3918       0.3688
   1426.39670       0.3719       0.3387    1426.39670       0.3719       0.3386
   1426.38145       0.3798       0.5546    1426.38145       0.3798       0.5545
   1426.36619       0.4384       0.3857    1426.36619       0.4383       0.3856
   1426.35093       0.3705       0.4228    1426.35093       0.3705       0.4226
   1426.33567       0.4491       0.3346    1426.33567       0.4490       0.3345
   1426.32041       0.4063       0.3783    1426.32041       0.4063       0.3782
   1426.30515       0.3022       0.3449    1426.30515       0.3021       0.3448
   1426.28989       0.3804       0.4361    1426.28989       0.3804       0.4359
   1426.27463       0.4764       0.4021    1426.27463       0.4764       0.4020
   1426.25937       0.3760       0.4453    1426.25937       0.3759       0.4452
   1426.24412       0.3768       0.4642    1426.24412       0.3768       0.4640
   1426.22886       0.3499       0.4332    1426.22886       0.3499       0.4330
   1426.21360       0.3583       0.5219    1426.21360       0.3583       0.5217
   1426.19834       0.4021       0.3360    1426.19834       0.4020       0.3359
   1426.18308       0.4407       0.5050    1426.18308       0.4406       0.5049
   1426.16782       0.3535       0.4567    1426.16782       0.3535       0.4566
   1426.15256       0.4253       0.4562    1426.15256       0.4252       0.4561
   1426.13730       0.3904       0.4704    1426.13730       0.3904       0.4703
   1426.12205       0.4054       0.4479    1426.12205       0.4054       0.4478
   1426.10679       0.4651       0.4291    1426.10679       0.4650       0.4290
   1426.09153       0.3434       0.4568    1426.09153       0.3434       0.4567
   1426.07627       0.4338       0.3884    1426.07627       0.4337       0.3883
   1426.06101       0.4673       0.4525    1426.06101       0.4672       0.4524
   1426.04575       0.3522       0.4582    1426.04575       0.3521       0.4581
   1426.03049       0.3391       0.4631    1426.03049       0.3391       0.4630
   1426.01523       0.4461       0.5034    1426.01523       0.4460       0.5033
   1425.99998       0.3871       0.4983    1425.99998       0.3870       0.4981
   1425.98472       0.4078       0.4981    1425.98472       0.4077       0.4980
   1425.96946       0.4274       0.4906    1425.96946       0.4273       0.4904
   1425.95420       0.3876       0.4919    1425.95420       0.3875       0.4918
   1425.93894       0.4600       0.4681    1425.93894       0.4599       0.4680
   1425.92368       0.4097       0.4212    1425.92368       0.4096       0.4210
   1425.90842       0.4361       0.4269    1425.90842       0.4360       0.4268
   1425.89316       0.4499       0.4640    1425.89316       0.4498       0.4639
   1425.87791       0.3749       0.4716    1425.87791       0.3748       0.4715
   1425.86265       0.4000       0.5319    1425.86265       0.4000       0.5318
   1425.84739       0.4527       0.4700    1425.84739       0.4526       0.4698
   1425.83213       0.3887       0.5172    1425.83213       0.3886       0.5170
   1425.81687       0.3840       0.5078    1425.81687       0.3840       0.5077
   1425.80161       0.3951       0.5049    1425.80161       0.3951       0.5048
   1425.78635       0.4477       0.4808    1425.78635       0.4476       0.4807
   1425.77109       0.4766       0.4582    1425.77109       0.4765       0.4580
   1425.75583       0.4522       0.5926    1425.75583       0.4521       0.5924
   1425.74058       0.4508       0.5311    1425.74058       0.4507       0.5309
   1425.72532       0.3875       0.4875    1425.72532       0.3874       0.4874
   1425.71006       0.3949       0.5366    1425.71006       0.3948       0.5364
   1425.69480       0.4301       0.5174    1425.69480       0.4301       0.5173
   1425.67954       0.4733       0.4363    1425.67954       0.4732       0.4361
   1425.66428       0.3573       0.4905    1425.66428       0.3572       0.4904
   1425.64902       0.4274       0.3955    1425.64902       0.4273       0.3953
   1425.63376       0.4149       0.4841    1425.63376       0.4149       0.4839
   1425.61851       0.3839       0.4891    1425.61851       0.3838       0.4889
   1425.60325       0.4411       0.4778    1425.60325       0.4410       0.4777
   1425.58799       0.3973       0.4798    1425.58799       0.3972       0.4796
   1425.57273       0.3979       0.5449    1425.57273       0.3978       0.5448
   1425.55747       0.3931       0.4782    1425.55747       0.3930       0.4781
   1425.54221       0.4755       0.5302    1425.54221       0.4754       0.5300
   1425.52695       0.3785       0.4733    1425.52695       0.3784       0.4732
   1425.51169       0.3987       0.4479    1425.51169       0.3987       0.4477
   1425.49644       0.4156       0.4929    1425.49644       0.4155       0.4928
   1425.48118       0.4581       0.5096    1425.48118       0.4580       0.5094
   1425.46592       0.3845       0.4924    1425.46592       0.3844       0.4922
   1425.45066       0.3975       0.5460    1425.45066       0.3974       0.5459
   1425.43540       0.3880       0.5002    1425.43540       0.3880       0.5000
   1425.42014       0.4233       0.5175    1425.42014       0.4232       0.5173
   1425.40488       0.3844       0.4629    1425.40488       0.3843       0.4627
   1425.38962       0.4271       0.5920    1425.38962       0.4270       0.5918
   1425.37437       0.3863       0.5152    1425.37437       0.3862       0.5151
   1425.35911       0.4565       0.4928    1425.35911       0.4564       0.4926
   1425.34385       0.4215       0.5285    1425.34385       0.4215       0.5284
   1425.32859       0.4761       0.5223    1425.32859       0.4760       0.5221
   1425.31333       0.5045       0.5773    1425.31333       0.5044       0.5771
   1425.29807       0.4848       0.4576    1425.29807       0.4847       0.4575
   1425.28281       0.4677       0.4297    1425.28281       0.4676       0.4296
   1425.26755       0.4578       0.4765    1425.26755       0.4577       0.4764
   1425.25229       0.4260       0.5420    1425.25229       0.4259       0.5418
   1425.23704       0.4987       0.4233    1425.23704       0.4987       0.4231
   1425.22178       0.4134       0.5964    1425.22178       0.4133       0.5962
   1425.20652       0.5145       0.5208    1425.20652       0.5144       0.5207
   1425.19126       0.5056       0.5736    1425.19126       0.5055       0.5734
   1425.17600       0.5404       0.5686    1425.17600       0.5403       0.5685
   1425.16074       0.4278       0.6235    1425.16074       0.4277       0.6234
   1425.14548       0.4806       0.5130    1425.14548       0.4805       0.5128
   1425.13022       0.4576       0.5346    1425.13022       0.4575       0.5344
   1425.11497       0.4304       0.5263    1425.11497       0.4304       0.5262
   1425.09971       0.5300       0.5407    1425.09971       0.5299       0.5406
   1425.08445       0.4346       0.5583    1425.08445       0.4345       0.5582
   1425.06919       0.4223       0.4966    1425.06919       0.4222       0.4965
   1425.05393       0.4292       0.5448    1425.05393       0.4291       0.5446
   1425.03867       0.4339       0.5203    1425.03867       0.4338       0.5202
   1425.02341       0.4027       0.5277    1425.02341       0.4026       0.5276
   1425.00815       0.5453       0.4994    1425.00815       0.5452       0.4993
   1424.99290       0.4325       0.4719    1424.99290       0.4324       0.4718
   1424.97764       0.4784       0.4525    1424.97764       0.4783       0.4524
   1424.96238       0.4626       0.4896    1424.96238       0.4625       0.4895
   1424.94712       0.5153       0.5042    1424.94712       0.5152       0.5040
   1424.93186       0.4275       0.5752    1424.93186       0.4274       0.5751
   1424.91660       0.3983       0.5752    1424.91660       0.3982       0.5750
   1424.90134       0.4976       0.5294    1424.90134       0.4975       0.5292
   1424.88608       0.4661       0.5174    1424.88608       0.4660       0.5173
   1424.87083       0.5034       0.5404    1424.87083       0.5033       0.5402
   1424.85557       0.5008       0.5136    1424.85557       0.5007       0.5134
   1424.84031       0.4515       0.4423    1424.84031       0.4514       0.4421
   1424.82505       0.5184       0.5769    1424.82505       0.5183       0.5768
   1424.80979       0.4692       0.5586    1424.80979       0.4692       0.5584
   1424.79453       0.4730       0.5546    1424.79453       0.4730       0.5545
   1424.77927       0.4446       0.6304    1424.77927       0.4446       0.6302
   1424.76401       0.4561       0.4624    1424.76401       0.4560       0.4623
   1424.74875       0.4973       0.5454    1424.74875       0.4972       0.5452
   1424.73350       0.5038       0.5996    1424.73350       0.5037       0.5995
   1424.71824       0.4836       0.5773    1424.71824       0.4835       0.5771
   1424.70298       0.4914       0.6020    1424.70298       0.4913       0.6018
   1424.68772       0.4508       0.6579    1424.68772       0.4507       0.6577
   1424.67246       0.4956       0.5844    1424.67246       0.4955       0.5842
   1424.65720       0.4952       0.5929    1424.65720       0.4952       0.5927
   1424.64194       0.4543       0.5628    1424.64194       0.4542       0.5626
   1424.62668       0.4789       0.5937    1424.62668       0.4788       0.5935
   1424.61143       0.4999       0.5032    1424.61143       0.4998       0.5031
   1424.59617       0.5452       0.5581    1424.59617       0.5452       0.5580
   1424.58091       0.5341       0.5799    1424.58091       0.5340       0.5797
   1424.56565       0.4919       0.6732    1424.56565       0.4918       0.6730
   1424.55039       0.5229       0.6974    1424.55039       0.5228       0.6972
   1424.53513       0.4625       0.5800    1424.53513       0.4624       0.5798
   1424.51987       0.4870       0.6260    1424.51987       0.4869       0.6259
   1424.50461       0.4996       0.6653    1424.50461       0.4996       0.6652
   1424.48936       0.5311       0.5939    1424.48936       0.5310       0.5937
   1424.47410       0.4988       0.5547    1424.47410       0.4987       0.5546
   1424.45884       0.4649       0.5607    1424.45884       0.4649       0.5605
   1424.44358       0.5445       0.5292    1424.44358       0.5444       0.5290
   1424.42832       0.5109       0.5411    1424.42832       0.5109       0.5409
   1424.41306       0.4598       0.5986    1424.41306       0.4598       0.5985
   1424.39780       0.4227       0.5683    1424.39780       0.4226       0.5681
   1424.38254       0.4632       0.6438    1424.38254       0.4632       0.6436
   1424.36729       0.5127       0.6455    1424.36729       0.5126       0.6453
   1424.35203       0.4764       0.6013    1424.35203       0.4763       0.6011
   1424.33677       0.4682       0.6107    1424.33677       0.4681       0.6106
   1424.32151       0.5246       0.6405    1424.32151       0.5245       0.6403
   1424.30625       0.5270       0.6968    1424.30625       0.5269       0.6966
   1424.29099       0.4274       0.5491    1424.29099       0.4274       0.5490
   1424.27573       0.5093       0.6130    1424.27573       0.5092       0.6128
   1424.26047       0.4703       0.5777    1424.26047       0.4702       0.5775
   1424.24521       0.4488       0.6168    1424.24521       0.4487       0.6166
   1424.22996       0.5091       0.6429    1424.22996       0.5090       0.6427
   1424.21470       0.5237       0.5743    1424.21470       0.5236       0.5741
   1424.19944       0.4949       0.5531    1424.19944       0.4948       0.5530
   1424.18418       0.4579       0.5987    1424.18418       0.4578       0.5985
   1424.16892       0.4664       0.6667    1424.16892       0.4663       0.6665
   1424.15366       0.4997       0.6013    1424.15366       0.4996       0.6011
   1424.13840       0.4933       0.6337    1424.13840       0.4933       0.6335
   1424.12314       0.4444       0.7416    1424.12314       0.4444       0.7414
   1424.10789       0.4743       0.6890    1424.10789       0.4742       0.6888
   1424.09263       0.4914       0.5764    1424.09263       0.4913       0.5763
   1424.07737       0.4428       0.6190    1424.07737       0.4428       0.6188
   1424.06211       0.5764       0.7698    1424.06211       0.5763       0.7696
   1424.04685       0.4389       0.6550    1424.04685       0.4388       0.6548
   1424.03159       0.5085       0.6489    1424.03159       0.5084       0.6487
   1424.01633       0.4839       0.6556    1424.01633       0.4838       0.6554
   1424.00107       0.4571       0.6420    1424.00107       0.4570       0.6418
   1423.98582       0.4961       0.6751    1423.98582       0.4960       0.6749
   1423.97056       0.4930       0.6310    1423.97056       0.4929       0.6308
   1423.95530       0.4492       0.6529    1423.95530       0.4492       0.6527
   1423.94004       0.5059       0.6684    1423.94004       0.5059       0.6682
   1423.92478       0.5253       0.6540    1423.92478       0.5252       0.6538
   1423.90952       0.4351       0.7051    1423.90952       0.4350       0.7049
   1423.89426       0.4956       0.6496    1423.89426       0.4955       0.6494
   1423.87900       0.4169       0.7162    1423.87900       0.4168       0.7160
   1423.86375       0.4729       0.7261    1423.86375       0.4728       0.7259
   1423.84849       0.4526       0.7205    1423.84849       0.4525       0.7203
   1423.83323       0.4920       0.5861    1423.83323       0.4919       0.5859
   1423.81797       0.4935       0.6218    1423.81797       0.4934       0.6216
   1423.80271       0.4751       0.6612    1423.80271       0.4750       0.6610
   1423.78745       0.5073       0.7787    1423.78745       0.5072       0.7785
   1423.77219       0.5141       0.7259    1423.77219       0.5140       0.7257
   1423.75693       0.4840       0.6389    1423.75693       0.4839       0.6388
   1423.74167       0.5331       0.6762    1423.74167       0.5330       0.6760
   1423.72642       0.4751       0.6795    1423.72642       0.4750       0.6793
   1423.71116       0.4749       0.6817    1423.71116       0.4748       0.6815
   1423.69590       0.5081       0.6759    1423.69590       0.5080       0.6757
   1423.68064       0.4724       0.6901    1423.68064       0.4723       0.6899
   1423.66538       0.4745       0.7238    1423.66538       0.4744       0.7236
   1423.65012       0.5561       0.6459    1423.65012       0.5560       0.6457
   1423.63486       0.5280       0.7451    1423.63486       0.5279       0.7449
   1423.61960       0.5398       0.6587    1423.61960       0.5397       0.6585
   1423.60435       0.5590       0.6367    1423.60435       0.5589       0.6365
   1423.58909       0.4857       0.7779    1423.58909       0.4856       0.7776
   1423.57383       0.4863       0.7045    1423.57383       0.4863       0.7043
   1423.55857       0.4604       0.6591    1423.55857       0.4603       0.6589
   1423.54331       0.5217       0.7595    1423.54331       0.5216       0.7593
   1423.52805       0.5121       0.7777    1423.52805       0.5120       0.7775
   1423.51279       0.5293       0.7335    1423.51279       0.5292       0.7333
   1423.49753       0.5317       0.7136    1423.49753       0.5316       0.7134
   1423.48228       0.5223       0.8053    1423.48228       0.5222       0.8051
   1423.46702       0.5019       0.7344    1423.46702       0.5019       0.7342
   1423.45176       0.5243       0.7102    1423.45176       0.5242       0.7100
   1423.43650       0.4654       0.6913    1423.43650       0.4653       0.6911
   1423.42124       0.4391       0.7593    1423.42124       0.4390       0.7591
   1423.40598       0.4964       0.7397    1423.40598       0.4963       0.7395
   1423.39072       0.4984       0.8036    1423.39072       0.4983       0.8034
   1423.37546       0.3862       0.7326    1423.37546       0.3862       0.7324
   1423.36021       0.4552       0.7747    1423.36021       0.4551       0.7745
   1423.34495       0.5308       0.6852    1423.34495       0.5307       0.6850
   1423.32969       0.5517       0.6853    1423.32969       0.5516       0.6851
   1423.31443       0.4682       0.7609    1423.31443       0.4681       0.7606
   1423.29917       0.5045       0.7974    1423.29917       0.5044       0.7971
   1423.28391       0.4769       0.7528    1423.28391       0.4768       0.7526
   1423.26865       0.4939       0.7206    1423.26865       0.4938       0.7204
   1423.25339       0.5510       0.7190    1423.25339       0.5509       0.7188
   1423.23813       0.5228       0.7302    1423.23813       0.5227       0.7300
   1423.22288       0.4990       0.6962    1423.22288       0.4989       0.6960
   1423.20762       0.5446       0.7560    1423.20762       0.5446       0.7558
   1423.19236       0.5040       0.7188    1423.19236       0.5039       0.7186
   1423.17710       0.5010       0.7451    1423.17710       0.5009       0.7449
   1423.16184       0.4735       0.7118    1423.16184       0.4734       0.7116
   1423.14658       0.4726       0.7180    1423.14658       0.4725       0.7178
   1423.13132       0.4818       0.7405    1423.13132       0.4817       0.7403
   1423.11606       0.4955       0.8427    1423.11606       0.4954       0.8425
   1423.10081       0.4771       0.8622    1423.10081       0.4770       0.8619
   1423.08555       0.6008       0.8420    1423.08555       0.6007       0.8417
   1423.07029       0.7854       0.8299    1423.07029       0.7852       0.8297
   1423.05503       0.7831       1.0107    1423.05503       0.7829       1.0104
   1423.03977       1.0129       1.2339    1423.03977       1.0127       1.2336
   1423.02451       1.1091       1.5006    1423.02451       1.1089       1.5001
   1423.00925       1.4397       1.8587    1423.00925       1.4394       1.8582
   1422.99399       1.8038       2.2080    1422.99399       1.8035       2.2074
   1422.97874       2.0204       2.5853    1422.97874       2.0201       2.5846
   1422.96348       2.2243       2.7557    1422.96348       2.2239       2.7549
   1422.94822       2.2929       2.8191    1422.94822       2.2925       2.8183
   1422.93296       2.3550       2.9671    1422.93296       2.3546       2.9662
   1422.91770       2.4486       2.9969    1422.91770       2.4482       2.9960
   1422.90244       2.5236       3.2293    1422.90244       2.5232       3.2284
   1422.88718       2.7454       3.4195    1422.88718       2.7450       3.4185
   1422.87192       3.0891       3.7703    1422.87192       3.0886       3.7692
   1422.85667       3.3198       4.1245    1422.85667       3.3192       4.1233
   1422.84141       3.6100       4.4841    1422.84141       3.6094       4.4828
   1422.82615       3.7201       4.5516    1422.82615       3.7195       4.5503
   1422.81089       3.7975       4.5767    1422.81089       3.7968       4.5754
   1422.79563       3.5449       4.4568    1422.79563       3.5443       4.4555
   1422.78037       3.3654       4.2205    1422.78037       3.3648       4.2193
   1422.76511       3.0847       3.9351    1422.76511       3.0842       3.9339
   1422.74985       2.8740       3.6831    1422.74985       2.8735       3.6821
   1422.73459       2.5842       3.2841    1422.73459       2.5838       3.2831
   1422.71934       2.3690       2.9851    1422.71934       2.3686       2.9843
   1422.70408       2.3083       2.9940    1422.70408       2.3080       2.9931
   1422.68882       2.2400       2.8324    1422.68882       2.2396       2.8316
   1422.67356       2.0931       2.7865    1422.67356       2.0928       2.7857
   1422.65830       2.1021       2.7905    1422.65830       2.1017       2.7897
   1422.64304       2.0434       2.6519    1422.64304       2.0430       2.6511
   1422.62778       1.9754       2.6168    1422.62778       1.9750       2.6160
   1422.61252       1.9588       2.4097    1422.61252       1.9584       2.4090
   1422.59727       1.7318       2.2688    1422.59727       1.7315       2.2681
   1422.58201       1.6847       2.1879    1422.58201       1.6844       2.1873
   1422.56675       1.5326       2.0257    1422.56675       1.5324       2.0252
   1422.55149       1.4836       2.0100    1422.55149       1.4833       2.0094
   1422.53623       1.4669       1.9544    1422.53623       1.4666       1.9538
   1422.52097       1.3993       1.9270    1422.52097       1.3990       1.9264
   1422.50571       1.3758       1.7668    1422.50571       1.3755       1.7663
   1422.49045       1.2301       1.6765    1422.49045       1.2299       1.6760
   1422.47520       1.1222       1.5678    1422.47520       1.1220       1.5674
   1422.45994       1.1143       1.5516    1422.45994       1.1142       1.5512
   1422.44468       1.0135       1.4432    1422.44468       1.0133       1.4427
   1422.42942       0.9786       1.3693    1422.42942       0.9785       1.3689
   1422.41416       0.8506       1.2656    1422.41416       0.8505       1.2653
   1422.39890       0.8536       1.1707    1422.39890       0.8535       1.1703
   1422.38364       0.8470       1.1796    1422.38364       0.8468       1.1792
   1422.36838       0.7323       1.1118    1422.36838       0.7322       1.1115
   1422.35312       0.7683       1.0558    1422.35312       0.7682       1.0555
   1422.33787       0.6241       0.9818    1422.33787       0.6240       0.9815
   1422.32261       0.5952       0.9701    1422.32261       0.5951       0.9699
   1422.30735       0.6677       0.8806    1422.30735       0.6676       0.8803
   1422.29209       0.5843       0.8889    1422.29209       0.5842       0.8886
   1422.27683       0.5646       0.8058    1422.27683       0.5645       0.8055
   1422.26157       0.5618       0.8475    1422.26157       0.5617       0.8473
   1422.24631       0.5558       0.8024    1422.24631       0.5557       0.8021
   1422.23105       0.4965       0.8019    1422.23105       0.4965       0.8017
   1422.21580       0.4807       0.7153    1422.21580       0.4806       0.7151
   1422.20054       0.4827       0.7452    1422.20054       0.4826       0.7450
   1422.18528       0.5017       0.7438    1422.18528       0.5016       0.7436
   1422.17002       0.4934       0.6851    1422.17002       0.4933       0.6849
   1422.15476       0.5033       0.7856    1422.15476       0.5032       0.7854
   1422.13950       0.5376       0.7106    1422.13950       0.5375       0.7104
   1422.12424       0.5562       0.7993    1422.12424       0.5562       0.7991
   1422.10898       0.4734       0.7505    1422.10898       0.4733       0.7502
   1422.09373       0.4875       0.7936    1422.09373       0.4874       0.7934
   1422.07847       0.4477       0.7868    1422.07847       0.4476       0.7866
   1422.06321       0.4837       0.8044    1422.06321       0.4836       0.8042
   1422.04795       0.5147       0.6367    1422.04795       0.5146       0.6365
   1422.03269       0.4438       0.6939    1422.03269       0.4438       0.6937
   1422.01743       0.3938       0.7573    1422.01743       0.3937       0.7571
   1422.00217       0.4254       0.6763    1422.00217       0.4254       0.6761
   1421.98691       0.5090       0.7509    1421.98691       0.5090       0.7507
   1421.97166       0.4785       0.7557    1421.97166       0.4784       0.7555
   1421.95640       0.4296       0.7892    1421.95640       0.4295       0.7890
   1421.94114       0.4346       0.7569    1421.94114       0.4345       0.7567
   1421.92588       0.5130       0.6451    1421.92588       0.5129       0.6449
   1421.91062       0.5091       0.7209    1421.91062       0.5091       0.7207
   1421.89536       0.4506       0.6031    1421.89536       0.4505       0.6029
   1421.88010       0.5256       0.6388    1421.88010       0.5255       0.6386
   1421.86484       0.4941       0.6674    1421.86484       0.4940       0.6672
   1421.84958       0.4872       0.7475    1421.84958       0.4871       0.7473
   1421.83433       0.4275       0.7529    1421.83433       0.4275       0.7526
   1421.81907       0.4268       0.6696    1421.81907       0.4268       0.6694
   1421.80381       0.5140       0.7012    1421.80381       0.5139       0.7010
   1421.78855       0.4719       0.6945    1421.78855       0.4718       0.6943
   1421.77329       0.4529       0.6784    1421.77329       0.4528       0.6782
   1421.75803       0.4939       0.7017    1421.75803       0.4938       0.7015
   1421.74277       0.4810       0.6838    1421.74277       0.4809       0.6836
   1421.72751       0.4695       0.7184    1421.72751       0.4694       0.7182
   1421.71226       0.4520       0.7336    1421.71226       0.4519       0.7333
   1421.69700       0.5431       0.7386    1421.69700       0.5430       0.7384
   1421.68174       0.4825       0.6441    1421.68174       0.4824       0.6439
   1421.66648       0.5161       0.7220    1421.66648       0.5160       0.7218
   1421.65122       0.4937       0.6713    1421.65122       0.4936       0.6711
   1421.63596       0.4814       0.6531    1421.63596       0.4814       0.6529
   1421.62070       0.5096       0.6670    1421.62070       0.5095       0.6668
   1421.60544       0.5297       0.6927    1421.60544       0.5296       0.6925
   1421.59019       0.4149       0.7683    1421.59019       0.4148       0.7681
   1421.57493       0.3701       0.7081    1421.57493       0.3700       0.7079
   1421.55967       0.4679       0.6867    1421.55967       0.4679       0.6866
   1421.54441       0.4139       0.6629    1421.54441       0.4138       0.6627
   1421.52915       0.4300       0.6910    1421.52915       0.4299       0.6908
   1421.51389       0.3810       0.7008    1421.51389       0.3810       0.7006
   1421.49863       0.4598       0.6452    1421.49863       0.4597       0.6450
   1421.48337       0.4874       0.6402    1421.48337       0.4873       0.6400
   1421.46812       0.4238       0.6708    1421.46812       0.4238       0.6706
   1421.45286       0.5060       0.6023    1421.45286       0.5059       0.6022
   1421.43760       0.4621       0.6868    1421.43760       0.4620       0.6866
   1421.42234       0.5403       0.5777    1421.42234       0.5402       0.5776
   1421.40708       0.4805       0.6749    1421.40708       0.4804       0.6747
   1421.39182       0.4564       0.5903    1421.39182       0.4563       0.5901
   1421.37656       0.4919       0.6139    1421.37656       0.4918       0.6137
   1421.36130       0.4881       0.5894    1421.36130       0.4880       0.5892
   1421.34604       0.4246       0.6339    1421.34604       0.4245       0.6337
   1421.33079       0.4273       0.6461    1421.33079       0.4272       0.6459
   1421.31553       0.4610       0.6339    1421.31553       0.4609       0.6338
   1421.30027       0.4847       0.6534    1421.30027       0.4846       0.6532
   1421.28501       0.4793       0.7198    1421.28501       0.4793       0.7196
   1421.26975       0.4027       0.6954    1421.26975       0.4026       0.6952
   1421.25449       0.4490       0.7101    1421.25449       0.4489       0.7099
   1421.23923       0.4723       0.7146    1421.23923       0.4722       0.7144
   1421.22397       0.4692       0.6330    1421.22397       0.4692       0.6328
   1421.20872       0.5026       0.6198    1421.20872       0.5025       0.6197
   1421.19346       0.5249       0.6271    1421.19346       0.5248       0.6269
   1421.17820       0.4737       0.5930    1421.17820       0.4736       0.5928
   1421.16294       0.4744       0.5717    1421.16294       0.4743       0.5716
   1421.14768       0.5048       0.6091    1421.14768       0.5047       0.6090
   1421.13242       0.4897       0.6233    1421.13242       0.4896       0.6231
   1421.11716       0.4950       0.6138    1421.11716       0.4950       0.6136
   1421.10190       0.4979       0.5332    1421.10190       0.4978       0.5331
   1421.08665       0.4275       0.6576    1421.08665       0.4274       0.6574
   1421.07139       0.5050       0.6139    1421.07139       0.5049       0.6137
   1421.05613       0.4815       0.6938    1421.05613       0.4814       0.6936
   1421.04087       0.5056       0.6433    1421.04087       0.5055       0.6431
   1421.02561       0.4422       0.5599    1421.02561       0.4421       0.5597
   1421.01035       0.4982       0.6069    1421.01035       0.4981       0.6068
   1420.99509       0.4947       0.6310    1420.99509       0.4946       0.6309
   1420.97983       0.5239       0.5996    1420.97983       0.5238       0.5995
   1420.96458       0.4376       0.6310    1420.96458       0.4376       0.6308
   1420.94932       0.4636       0.5772    1420.94932       0.4636       0.5770
   1420.93406       0.4203       0.5963    1420.93406       0.4203       0.5961
   1420.91880       0.4331       0.6027    1420.91880       0.4331       0.6025
   1420.90354       0.4300       0.5861    1420.90354       0.4299       0.5859
   1420.88828       0.4322       0.6549    1420.88828       0.4321       0.6547
   1420.87302       0.4110       0.5964    1420.87302       0.4109       0.5963
   1420.85776       0.4067       0.5550    1420.85776       0.4066       0.5548
   1420.84250       0.3700       0.4792    1420.84250       0.3700       0.4790
   1420.82725       0.3940       0.5120    1420.82725       0.3939       0.5118
   1420.81199       0.3891       0.5625    1420.81199       0.3890       0.5624
   1420.79673       0.4063       0.4957    1420.79673       0.4062       0.4956
   1420.78147       0.2842       0.4351    1420.78147       0.2842       0.4350
   1420.76621       0.3526       0.4310    1420.76621       0.3526       0.4308
   1420.75095       0.3978       0.4647    1420.75095       0.3977       0.4646
   1420.73569       0.3659       0.5426    1420.73569       0.3658       0.5424
   1420.72043       0.4234       0.5373    1420.72043       0.4234       0.5372
   1420.70518       0.4365       0.6370    1420.70518       0.4365       0.6368
   1420.68992       0.5516       0.6630    1420.68992       0.5515       0.6628
   1420.67466       0.6357       0.7870    1420.67466       0.6356       0.7867
   1420.65940       0.6727       0.9995    1420.65940       0.6726       0.9992
   1420.64414       0.8835       1.1244    1420.64414       0.8834       1.1241
   1420.62888       0.9570       1.2667    1420.62888       0.9568       1.2663
   1420.61362       1.1649       1.5071    1420.61362       1.1647       1.5067
   1420.59836       1.2290       1.5262    1420.59836       1.2288       1.5257
   1420.58311       1.1913       1.4248    1420.58311       1.1911       1.4244
   1420.56785       1.2526       1.5255    1420.56785       1.2524       1.5251
   1420.55259       1.3505       1.5617    1420.55259       1.3503       1.5612
   1420.53733       0.7464       0.8756    1420.53733       0.7463       0.8754
   1420.52207       0.3494       0.4233    1420.52207       0.3493       0.4232
   1420.50681      -0.0139      -0.0138    1420.50681      -0.0139      -0.0138
   1420.49155      -0.3465      -0.3561    1420.49155      -0.3465      -0.3560
   1420.47629      -0.4123      -0.5254    1420.47629      -0.4122      -0.5252
   1420.46104      -0.2236      -0.3610    1420.46104      -0.2236      -0.3609
   1420.44578       0.0061      -0.0990    1420.44578       0.0061      -0.0989
   1420.43052      -0.6811      -0.8222    1420.43052      -0.6810      -0.8220
   1420.41526      -0.9791      -1.3365    1420.41526      -0.9790      -1.3361
   1420.40000      -1.5992      -2.0935    1420.40000      -1.5989      -2.0929
   1420.38474      -1.3657      -1.8395    1420.38474      -1.3655      -1.8389
   1420.36948       1.2921       1.6330    1420.36948       1.2919       1.6325
   1420.35422       3.7364       4.7300    1420.35422       3.7358       4.7287
   1420.33896       0.6277       0.7819    1420.33896       0.6276       0.7817
   1420.32371       0.3470       0.5737    1420.32371       0.3469       0.5735
   1420.30845       0.5557       0.4756    1420.30845       0.5556       0.4755
   1420.29319       0.6855       0.8059    1420.29319       0.6853       0.8056
   1420.27793       0.6732       0.6789    1420.27793       0.6730       0.6787
   1420.26267       0.5655       0.6132    1420.26267       0.5654       0.6130
   1420.24741       0.4493       0.5940    1420.24741       0.4492       0.5938
   1420.23215       0.4519       0.6018    1420.23215       0.4519       0.6017
   1420.21689       0.4457       0.6440    1420.21689       0.4457       0.6439
   1420.20164       0.4959       0.5790    1420.20164       0.4958       0.5788
   1420.18638       0.4181       0.5291    1420.18638       0.4180       0.5290
   1420.17112       0.5272       0.6597    1420.17112       0.5271       0.6595
   1420.15586       0.4384       0.5700    1420.15586       0.4383       0.5698
   1420.14060       0.5121       0.5644    1420.14060       0.5120       0.5643
   1420.12534       0.4465       0.5833    1420.12534       0.4465       0.5831
   1420.11008       0.4137       0.6343    1420.11008       0.4136       0.6341
   1420.09482       0.4804       0.4975    1420.09482       0.4803       0.4973
   1420.07957       0.4706       0.5876    1420.07957       0.4706       0.5875
   1420.06431       0.5227       0.6322    1420.06431       0.5226       0.6320
   1420.04905       0.4495       0.6086    1420.04905       0.4494       0.6084
   1420.03379       0.4970       0.5895    1420.03379       0.4969       0.5893
   1420.01853       0.5082       0.6380    1420.01853       0.5081       0.6378
   1420.00327       0.4547       0.6109    1420.00327       0.4547       0.6107
   1419.98801       0.5088       0.6153    1419.98801       0.5087       0.6151
   1419.97275       0.5223       0.6536    1419.97275       0.5222       0.6534
   1419.95750       0.4679       0.5992    1419.95750       0.4679       0.5990
   1419.94224       0.5337       0.6005    1419.94224       0.5336       0.6003
   1419.92698       0.5631       0.6168    1419.92698       0.5630       0.6166
   1419.91172       0.5048       0.6361    1419.91172       0.5047       0.6360
   1419.89646       0.5105       0.6415    1419.89646       0.5104       0.6413
   1419.88120       0.5308       0.5436    1419.88120       0.5307       0.5435
   1419.86594       0.4774       0.6045    1419.86594       0.4773       0.6043
   1419.85068       0.5683       0.6359    1419.85068       0.5682       0.6357
   1419.83542       0.5296       0.6328    1419.83542       0.5295       0.6326
   1419.82017       0.5219       0.5750    1419.82017       0.5218       0.5749
   1419.80491       0.5357       0.5740    1419.80491       0.5356       0.5738
   1419.78965       0.5536       0.5893    1419.78965       0.5535       0.5891
   1419.77439       0.5559       0.5342    1419.77439       0.5558       0.5340
   1419.75913       0.5561       0.5669    1419.75913       0.5560       0.5667
   1419.74387       0.5125       0.5947    1419.74387       0.5124       0.5945
   1419.72861       0.5654       0.6075    1419.72861       0.5653       0.6073
   1419.71335       0.5502       0.4756    1419.71335       0.5501       0.4754
   1419.69810       0.5606       0.6050    1419.69810       0.5605       0.6049
   1419.68284       0.5570       0.5707    1419.68284       0.5569       0.5705
   1419.66758       0.5256       0.6410    1419.66758       0.5256       0.6409
   1419.65232       0.5605       0.5565    1419.65232       0.5604       0.5564
   1419.63706       0.5590       0.6382    1419.63706       0.5589       0.6381
   1419.62180       0.5421       0.6169    1419.62180       0.5420       0.6167
   1419.60654       0.5284       0.6137    1419.60654       0.5283       0.6135
   1419.59128       0.5170       0.6077    1419.59128       0.5169       0.6076
   1419.57603       0.5442       0.6194    1419.57603       0.5441       0.6192
   1419.56077       0.4888       0.6672    1419.56077       0.4887       0.6670
   1419.54551       0.5689       0.6675    1419.54551       0.5688       0.6673
   1419.53025       0.5841       0.6674    1419.53025       0.5840       0.6672
   1419.51499       0.5832       0.6718    1419.51499       0.5831       0.6717
   1419.49973       0.5919       0.6210    1419.49973       0.5918       0.6208
   1419.48447       0.5589       0.7354    1419.48447       0.5588       0.7352
   1419.46921       0.5655       0.6999    1419.46921       0.5654       0.6997
   1419.45396       0.5281       0.6899    1419.45396       0.5280       0.6897
   1419.43870       0.5580       0.6326    1419.43870       0.5579       0.6325
   1419.42344       0.5920       0.6318    1419.42344       0.5919       0.6316
   1419.40818       0.5635       0.6120    1419.40818       0.5634       0.6119
   1419.39292       0.5215       0.6505    1419.39292       0.5214       0.6503
   1419.37766       0.5140       0.5831    1419.37766       0.5139       0.5829
   1419.36240       0.4994       0.6026    1419.36240       0.4993       0.6024
   1419.34714       0.5389       0.6252    1419.34714       0.5388       0.6250
   1419.33188       0.5992       0.6063    1419.33188       0.5991       0.6061
   1419.31663       0.5276       0.6392    1419.31663       0.5275       0.6390
   1419.30137       0.5718       0.5735    1419.30137       0.5717       0.5733
   1419.28611       0.5362       0.5889    1419.28611       0.5361       0.5887
   1419.27085       0.5005       0.6924    1419.27085       0.5005       0.6922
   1419.25559       0.5015       0.6564    1419.25559       0.5014       0.6562
   1419.24033       0.5314       0.6457    1419.24033       0.5313       0.6455
   1419.22507       0.5028       0.7281    1419.22507       0.5027       0.7279
   1419.20981       0.5354       0.6367    1419.20981       0.5353       0.6365
   1419.19456       0.5543       0.6160    1419.19456       0.5542       0.6158
   1419.17930       0.5524       0.6810    1419.17930       0.5523       0.6808
   1419.16404       0.5990       0.7003    1419.16404       0.5989       0.7001
   1419.14878       0.5253       0.6026    1419.14878       0.5252       0.6025
   1419.13352       0.4716       0.6465    1419.13352       0.4715       0.6463
   1419.11826       0.5363       0.6379    1419.11826       0.5362       0.6377
   1419.10300       0.5828       0.5975    1419.10300       0.5827       0.5973
   1419.08774       0.5147       0.6821    1419.08774       0.5146       0.6819
   1419.07249       0.5408       0.7633    1419.07249       0.5407       0.7631
   1419.05723       0.5684       0.7838    1419.05723       0.5683       0.7836
   1419.04197       0.5195       0.7128    1419.04197       0.5194       0.7126
   1419.02671       0.5666       0.6887    1419.02671       0.5665       0.6885
   1419.01145       0.5538       0.6320    1419.01145       0.5537       0.6318
   1418.99619       0.4198       0.6705    1418.99619       0.4197       0.6703
   1418.98093       0.5208       0.6099    1418.98093       0.5207       0.6097
   1418.96567       0.5130       0.6495    1418.96567       0.5129       0.6493
   1418.95042       0.5291       0.6194    1418.95042       0.5290       0.6192
   1418.93516       0.5536       0.7000    1418.93516       0.5535       0.6997
   1418.91990       0.4601       0.6539    1418.91990       0.4601       0.6537
   1418.90464       0.5123       0.7556    1418.90464       0.5122       0.7554
   1418.88938       0.5512       0.7326    1418.88938       0.5511       0.7324
   1418.87412       0.5180       0.6640    1418.87412       0.5179       0.6638
   1418.85886       0.5209       0.6907    1418.85886       0.5208       0.6905
   1418.84360       0.5518       0.7814    1418.84360       0.5517       0.7812
   1418.82834       0.5375       0.6363    1418.82834       0.5374       0.6361
   1418.81309       0.4947       0.7257    1418.81309       0.4946       0.7254
   1418.79783       0.4999       0.7308    1418.79783       0.4998       0.7305
   1418.78257       0.5423       0.7620    1418.78257       0.5422       0.7618
   1418.76731       0.5480       0.6959    1418.76731       0.5479       0.6957
   1418.75205       0.6062       0.7622    1418.75205       0.6061       0.7620
   1418.73679       0.5887       0.7347    1418.73679       0.5886       0.7345
   1418.72153       0.4629       0.7055    1418.72153       0.4628       0.7053
   1418.70627       0.4575       0.7682    1418.70627       0.4574       0.7680
   1418.69102       0.4500       0.6924    1418.69102       0.4499       0.6922
   1418.67576       0.4774       0.6404    1418.67576       0.4774       0.6402
   1418.66050       0.4978       0.7238    1418.66050       0.4977       0.7236
   1418.64524       0.4993       0.6899    1418.64524       0.4993       0.6897
   1418.62998       0.5157       0.7619    1418.62998       0.5157       0.7617
   1418.61472       0.5052       0.7211    1418.61472       0.5051       0.7209
   1418.59946       0.5192       0.7361    1418.59946       0.5192       0.7359
   1418.58420       0.4591       0.7222    1418.58420       0.4590       0.7220
   1418.56895       0.4916       0.6795    1418.56895       0.4916       0.6793
   1418.55369       0.4800       0.7954    1418.55369       0.4800       0.7952
   1418.53843       0.4916       0.7963    1418.53843       0.4915       0.7960
   1418.52317       0.5095       0.7814    1418.52317       0.5094       0.7812
   1418.50791       0.5396       0.8228    1418.50791       0.5395       0.8225
   1418.49265       0.4236       0.8406    1418.49265       0.4235       0.8403
   1418.47739       0.4746       0.7817    1418.47739       0.4746       0.7815
   1418.46213       0.4817       0.7993    1418.46213       0.4816       0.7991
   1418.44687       0.4472       0.8766    1418.44687       0.4471       0.8763
   1418.43162       0.4187       0.7779    1418.43162       0.4187       0.7777
   1418.41636       0.4249       0.8150    1418.41636       0.4248       0.8147
   1418.40110       0.5054       0.7937    1418.40110       0.5053       0.7934
   1418.38584       0.4506       0.6716    1418.38584       0.4505       0.6714
   1418.37058       0.4624       0.8094    1418.37058       0.4623       0.8092
   1418.35532       0.4322       0.7612    1418.35532       0.4322       0.7610
   1418.34006       0.4321       0.6992    1418.34006       0.4321       0.6990
   1418.32480       0.5261       0.7592    1418.32480       0.5260       0.7590
   1418.30955       0.5075       0.8568    1418.30955       0.5074       0.8566
   1418.29429       0.4879       0.8600    1418.29429       0.4878       0.8598
   1418.27903       0.5546       0.7983    1418.27903       0.5545       0.7981
   1418.26377       0.5183       0.7268    1418.26377       0.5182       0.7265
   1418.24851       0.4827       0.8030    1418.24851       0.4827       0.8027
   1418.23325       0.4301       0.7932    1418.23325       0.4300       0.7930
   1418.21799       0.4533       0.8838    1418.21799       0.4532       0.8836
   1418.20273       0.4446       0.9103    1418.20273       0.4445       0.9101
   1418.18748       0.4207       0.7592    1418.18748       0.4206       0.7590
   1418.17222       0.4320       0.7912    1418.17222       0.4320       0.7910
   1418.15696       0.4407       0.8840    1418.15696       0.4406       0.8838
   1418.14170       0.4504       0.7951    1418.14170       0.4504       0.7948
   1418.12644       0.4552       0.7593    1418.12644       0.4552       0.7591
   1418.11118       0.5457       0.7993    1418.11118       0.5456       0.7990
   1418.09592       0.4668       0.7604    1418.09592       0.4667       0.7602
   1418.08066       0.5077       0.7883    1418.08066       0.5076       0.7880
   1418.06541       0.5349       0.7172    1418.06541       0.5348       0.7170
   1418.05015       0.4090       0.7280    1418.05015       0.4089       0.7278
   1418.03489       0.4449       0.8101    1418.03489       0.4448       0.8098
   1418.01963       0.4757       0.8174    1418.01963       0.4756       0.8171
   1418.00437       0.4388       0.8403    1418.00437       0.4388       0.8401
   1417.98911       0.4206       0.8311    1417.98911       0.4206       0.8308
   1417.97385       0.4353       0.7901    1417.97385       0.4352       0.7899
   1417.95859       0.4021       0.7841    1417.95859       0.4021       0.7839
   1417.94333       0.4686       0.8781    1417.94333       0.4685       0.8778
   1417.92808       0.4255       0.8123    1417.92808       0.4254       0.8121
   1417.91282       0.4318       0.8178    1417.91282       0.4317       0.8176
   1417.89756       0.4501       0.8477    1417.89756       0.4500       0.8474
   1417.88230       0.4514       0.7984    1417.88230       0.4513       0.7982
   1417.86704       0.4040       0.7695    1417.86704       0.4039       0.7693
   1417.85178       0.3868       0.9636    1417.85178       0.3867       0.9633
   1417.83652       0.4231       0.9066    1417.83652       0.4230       0.9064
   1417.82126       0.4478       0.8282    1417.82126       0.4477       0.8280
   1417.80601       0.3964       0.8225    1417.80601       0.3964       0.8223
   1417.79075       0.4127       0.8977    1417.79075       0.4126       0.8974
   1417.77549       0.3756       0.9189    1417.77549       0.3755       0.9187
   1417.76023       0.3743       0.8652    1417.76023       0.3743       0.8650
   1417.74497       0.4040       0.9041    1417.74497       0.4039       0.9039
   1417.72971       0.4267       0.8419    1417.72971       0.4266       0.8417
   1417.71445       0.4023       0.8602    1417.71445       0.4022       0.8599
   1417.69919       0.3946       0.8542    1417.69919       0.3945       0.8540
   1417.68394       0.4135       0.8028    1417.68394       0.4135       0.8026
   1417.66868       0.3798       0.8541    1417.66868       0.3797       0.8538
   1417.65342       0.3776       0.8901    1417.65342       0.3775       0.8899
   1417.63816       0.3939       0.9633    1417.63816       0.3938       0.9630
   1417.62290       0.3618       0.8862    1417.62290       0.3617       0.8859
   1417.60764       0.4140       0.9370    1417.60764       0.4139       0.9368
   1417.59238       0.4413       0.9485    1417.59238       0.4412       0.9483
   1417.57712       0.4219       0.9356    1417.57712       0.4218       0.9354
   1417.56187       0.4657       0.8902    1417.56187       0.4656       0.8899
   1417.54661       0.3702       0.8337    1417.54661       0.3701       0.8335
   1417.53135       0.4591       0.8970    1417.53135       0.4591       0.8968
   1417.51609       0.3751       0.8076    1417.51609       0.3750       0.8074
   1417.50083       0.4250       0.8810    1417.50083       0.4250       0.8807
   1417.48557       0.4374       0.7950    1417.48557       0.4374       0.7947
   1417.47031       0.4419       0.8616    1417.47031       0.4418       0.8613
   1417.45505       0.4061       0.7938    1417.45505       0.4060       0.7935
   1417.43979       0.4533       0.8588    1417.43979       0.4532       0.8585
   1417.42454       0.4259       0.7818    1417.42454       0.4258       0.7815
   1417.40928       0.3856       0.8813    1417.40928       0.3855       0.8810
   1417.39402       0.3591       0.7977    1417.39402       0.3591       0.7975
   1417.37876       0.4545       0.8708    1417.37876       0.4544       0.8705
   1417.36350       0.3392       0.9011    1417.36350       0.3392       0.9009
   1417.34824       0.4298       0.8110    1417.34824       0.4297       0.8108
   1417.33298       0.4080       0.7986    1417.33298       0.4080       0.7984
   1417.31772       0.3989       0.9856    1417.31772       0.3988       0.9853
   1417.30247       0.4070       0.8417    1417.30247       0.4069       0.8415
   1417.28721       0.4002       0.8648    1417.28721       0.4001       0.8645
   1417.27195       0.3933       0.8743    1417.27195       0.3932       0.8740
   1417.25669       0.4345       0.8827    1417.25669       0.4345       0.8824
   1417.24143       0.3471       0.9138    1417.24143       0.3470       0.9135
   1417.22617       0.3995       0.9079    1417.22617       0.3994       0.9076
   1417.21091       0.3369       0.8437    1417.21091       0.3369       0.8435
   1417.19565       0.4472       0.8521    1417.19565       0.4471       0.8519
   1417.18040       0.3441       0.8532    1417.18040       0.3440       0.8530
   1417.16514       0.3994       0.8902    1417.16514       0.3994       0.8899
   1417.14988       0.4117       0.8052    1417.14988       0.4116       0.8050
   1417.13462       0.4024       0.9092    1417.13462       0.4023       0.9089
   1417.11936       0.3791       0.9372    1417.11936       0.3791       0.9369
   1417.10410       0.3913       0.9053    1417.10410       0.3912       0.9050
   1417.08884       0.4124       0.8528    1417.08884       0.4124       0.8526
   1417.07358       0.3463       0.9045    1417.07358       0.3462       0.9042
   1417.05833       0.3806       0.9217    1417.05833       0.3806       0.9214
   1417.04307       0.3255       0.9141    1417.04307       0.3254       0.9139
   1417.02781       0.3572       0.8921    1417.02781       0.3572       0.8918
   1417.01255       0.3583       0.8648    1417.01255       0.3582       0.8646
   1416.99729       0.3354       0.9341    1416.99729       0.3354       0.9338
   1416.98203       0.4012       0.9183    1416.98203       0.4012       0.9180
   1416.96677       0.4243       0.8521    1416.96677       0.4242       0.8519
   1416.95151       0.4178       0.8604    1416.95151       0.4177       0.8602
   1416.93625       0.3661       0.8694    1416.93625       0.3661       0.8692
   1416.92100       0.3718       0.9180    1416.92100       0.3717       0.9177
   1416.90574       0.3587       0.8968    1416.90574       0.3587       0.8965
   1416.89048       0.3649       0.8040    1416.89048       0.3648       0.8037
   1416.87522       0.3777       0.8826    1416.87522       0.3776       0.8823
   1416.85996       0.3948       0.8968    1416.85996       0.3947       0.8966
   1416.84470       0.3988       0.8878    1416.84470       0.3987       0.8876
   1416.82944       0.3632       0.7943    1416.82944       0.3631       0.7940
   1416.81418       0.3797       0.8407    1416.81418       0.3797       0.8404
   1416.79893       0.4030       0.8395    1416.79893       0.4029       0.8393
   1416.78367       0.4179       0.8305    1416.78367       0.4178       0.8303
   1416.76841       0.4032       0.7792    1416.76841       0.4031       0.7789
   1416.75315       0.3992       0.8608    1416.75315       0.3992       0.8606
   1416.73789       0.3981       0.8356    1416.73789       0.3981       0.8354
   1416.72263       0.3548       0.8671    1416.72263       0.3547       0.8669
   1416.70737       0.3946       0.8812    1416.70737       0.3945       0.8810
   1416.69211       0.3485       0.8595    1416.69211       0.3485       0.8593
   1416.67686       0.3318       0.8055    1416.67686       0.3317       0.8053
   1416.66160       0.3809       0.8271    1416.66160       0.3809       0.8269
   1416.64634       0.3355       0.8481    1416.64634       0.3354       0.8479
   1416.63108       0.3708       0.7725    1416.63108       0.3707       0.7723
   1416.61582       0.3880       0.8541    1416.61582       0.3879       0.8538
   1416.60056       0.3719       0.8303    1416.60056       0.3719       0.8301
   1416.58530       0.3734       0.8017    1416.58530       0.3733       0.8015
   1416.57004       0.4014       0.8418    1416.57004       0.4013       0.8415
   1416.55479       0.3691       0.8478    1416.55479       0.3691       0.8476
   1416.53953       0.3775       0.8228    1416.53953       0.3774       0.8226
   1416.52427       0.4005       0.9191    1416.52427       0.4004       0.9189
   1416.50901       0.3202       0.8655    1416.50901       0.3202       0.8652
   1416.49375       0.3216       0.8132    1416.49375       0.3215       0.8130
   1416.47849       0.3713       0.8816    1416.47849       0.3712       0.8813
   1416.46323       0.4072       0.8273    1416.46323       0.4071       0.8271
   1416.44797       0.3726       0.8904    1416.44797       0.3725       0.8901
   1416.43271       0.4060       0.9164    1416.43271       0.4059       0.9161
   1416.41746       0.3280       0.7878    1416.41746       0.3279       0.7876
   1416.40220       0.3552       0.8058    1416.40220       0.3551       0.8055
   1416.38694       0.4108       0.7845    1416.38694       0.4107       0.7842
   1416.37168       0.4088       0.8386    1416.37168       0.4088       0.8384
   1416.35642       0.3770       0.7803    1416.35642       0.3770       0.7801
   1416.34116       0.4086       0.8277    1416.34116       0.4085       0.8274
   1416.32590       0.3646       0.8477    1416.32590       0.3645       0.8475
   1416.31064       0.3576       0.8205    1416.31064       0.3575       0.8203
   1416.29539       0.4282       0.8002    1416.29539       0.4281       0.8000
   1416.28013       0.3585       0.8258    1416.28013       0.3584       0.8256
   1416.26487       0.4281       0.7781    1416.26487       0.4280       0.7779
   1416.24961       0.3748       0.7786    1416.24961       0.3748       0.7784
   1416.23435       0.3584       0.8404    1416.23435       0.3584       0.8401
   1416.21909       0.3081       0.8034    1416.21909       0.3080       0.8032
   1416.20383       0.3446       0.7644    1416.20383       0.3446       0.7642
   1416.18857       0.3933       0.8406    1416.18857       0.3933       0.8404
   1416.17332       0.3871       0.8554    1416.17332       0.3871       0.8552
   1416.15806       0.4505       0.8129    1416.15806       0.4504       0.8127
   1416.14280       0.4863       0.8385    1416.14280       0.4862       0.8382
   1416.12754       0.4208       0.8107    1416.12754       0.4207       0.8104
   1416.11228       0.4861       0.8161    1416.11228       0.4860       0.8158
   1416.09702       0.4118       0.7827    1416.09702       0.4117       0.7824
   1416.08176       0.3766       0.8216    1416.08176       0.3765       0.8214
   1416.06650       0.3662       0.7257    1416.06650       0.3661       0.7255
   1416.05125       0.3413       0.7791    1416.05125       0.3413       0.7789
   1416.03599       0.4104       0.8193    1416.03599       0.4103       0.8191
   1416.02073       0.4379       0.8084    1416.02073       0.4378       0.8082
   1416.00547       0.3937       0.7692    1416.00547       0.3936       0.7690
   1415.99021       0.4069       0.7171    1415.99021       0.4068       0.7169
   1415.97495       0.4176       0.7797    1415.97495       0.4175       0.7795
   1415.95969       0.3861       0.7999    1415.95969       0.3861       0.7997
   1415.94443       0.3672       0.7751    1415.94443       0.3671       0.7748
   1415.92917       0.4254       0.8066    1415.92917       0.4254       0.8063
   1415.91392       0.4059       0.8235    1415.91392       0.4058       0.8233
   1415.89866       0.4820       0.7812    1415.89866       0.4819       0.7810
   1415.88340       0.4357       0.7475    1415.88340       0.4356       0.7472
   1415.86814       0.3384       0.7638    1415.86814       0.3383       0.7636
   1415.85288       0.3716       0.7633    1415.85288       0.3715       0.7631
   1415.83762       0.4390       0.7368    1415.83762       0.4389       0.7366
   1415.82236       0.3556       0.8286    1415.82236       0.3555       0.8284
   1415.80710       0.3970       0.7669    1415.80710       0.3970       0.7667
   1415.79185       0.3926       0.7735    1415.79185       0.3926       0.7733
   1415.77659       0.3441       0.6939    1415.77659       0.3441       0.6937
   1415.76133       0.4068       0.7471    1415.76133       0.4067       0.7469
   1415.74607       0.3860       0.6473    1415.74607       0.3859       0.6471
   1415.73081       0.4434       0.7285    1415.73081       0.4433       0.7283
   1415.71555       0.4466       0.7945    1415.71555       0.4465       0.7942
   1415.70029       0.4417       0.6856    1415.70029       0.4416       0.6854
   1415.68503       0.4672       0.6958    1415.68503       0.4671       0.6956
   1415.66978       0.4328       0.7059    1415.66978       0.4327       0.7057
   1415.65452       0.3756       0.7339    1415.65452       0.3755       0.7337
   1415.63926       0.4534       0.7424    1415.63926       0.4533       0.7422
   1415.62400       0.3898       0.7594    1415.62400       0.3897       0.7592
   1415.60874       0.3575       0.7129    1415.60874       0.3574       0.7127
   1415.59348       0.3812       0.7379    1415.59348       0.3812       0.7377
   1415.57822       0.3384       0.7967    1415.57822       0.3383       0.7965
   1415.56296       0.3915       0.7707    1415.56296       0.3914       0.7705
   1415.54771       0.4457       0.7059    1415.54771       0.4456       0.7057
   1415.53245       0.3660       0.7579    1415.53245       0.3659       0.7577
   1415.51719       0.4735       0.7383    1415.51719       0.4734       0.7381
   1415.50193       0.4391       0.7404    1415.50193       0.4390       0.7402
   1415.48667       0.4604       0.7434    1415.48667       0.4603       0.7432
   1415.47141       0.4646       0.7248    1415.47141       0.4646       0.7245
   1415.45615       0.4423       0.7306    1415.45615       0.4422       0.7304
   1415.44089       0.3674       0.7167    1415.44089       0.3673       0.7165
   1415.42563       0.3782       0.7687    1415.42563       0.3782       0.7685
   1415.41038       0.4548       0.7889    1415.41038       0.4547       0.7887
   1415.39512       0.4699       0.7858    1415.39512       0.4698       0.7855
   1415.37986       0.4294       0.7321    1415.37986       0.4293       0.7319
   1415.36460       0.4179       0.7406    1415.36460       0.4178       0.7404
   1415.34934       0.4160       0.7706    1415.34934       0.4160       0.7704
   1415.33408       0.3625       0.7513    1415.33408       0.3624       0.7510
   1415.31882       0.4031       0.7128    1415.31882       0.4030       0.7126
   1415.30356       0.4287       0.7819    1415.30356       0.4286       0.7816
   1415.28831       0.4295       0.7557    1415.28831       0.4294       0.7555
   1415.27305       0.4770       0.7548    1415.27305       0.4769       0.7545
   1415.25779       0.4436       0.6992    1415.25779       0.4435       0.6990
   1415.24253       0.3630       0.7443    1415.24253       0.3629       0.7441
   1415.22727       0.4029       0.7876    1415.22727       0.4028       0.7874
   1415.21201       0.3925       0.8070    1415.21201       0.3925       0.8068
   1415.19675       0.3819       0.6842    1415.19675       0.3818       0.6840
   1415.18149       0.4049       0.7307    1415.18149       0.4048       0.7305
   1415.16624       0.4144       0.6379    1415.16624       0.4144       0.6377
   1415.15098       0.4109       0.6810    1415.15098       0.4109       0.6808
   1415.13572       0.4366       0.6649    1415.13572       0.4365       0.6647
   1415.12046       0.4599       0.7406    1415.12046       0.4598       0.7404
   1415.10520       0.4281       0.7543    1415.10520       0.4280       0.7541
   1415.08994       0.4740       0.7278    1415.08994       0.4739       0.7276
   1415.07468       0.4082       0.6894    1415.07468       0.4082       0.6892
   1415.05942       0.3977       0.7035    1415.05942       0.3976       0.7033
   1415.04417       0.4519       0.6645    1415.04417       0.4518       0.6643
   1415.02891       0.4319       0.6638    1415.02891       0.4318       0.6636
   1415.01365       0.4062       0.6325    1415.01365       0.4062       0.6323
   1414.99839       0.3731       0.7779    1414.99839       0.3730       0.7777
   1414.98313       0.4360       0.7696    1414.98313       0.4359       0.7693
   1414.96787       0.3717       0.6663    1414.96787       0.3717       0.6661
   1414.95261       0.4628       0.6455    1414.95261       0.4628       0.6453
   1414.93735       0.4264       0.5978    1414.93735       0.4263       0.5976
   1414.92209       0.3903       0.6767    1414.92209       0.3903       0.6765
   1414.90684       0.3686       0.6528    1414.90684       0.3686       0.6527
   1414.89158       0.4161       0.5868    1414.89158       0.4160       0.5866
   1414.87632       0.4252       0.6265    1414.87632       0.4252       0.6263
   1414.86106       0.4493       0.6626    1414.86106       0.4492       0.6624
   1414.84580       0.4610       0.6570    1414.84580       0.4609       0.6568
   1414.83054       0.5401       0.6700    1414.83054       0.5400       0.6698
   1414.81528       0.4757       0.6011    1414.81528       0.4756       0.6009
   1414.80002       0.4557       0.7263    1414.80002       0.4556       0.7261
   1414.78477       0.4581       0.5707    1414.78477       0.4580       0.5705
   1414.76951       0.4029       0.6365    1414.76951       0.4029       0.6363
   1414.75425       0.4296       0.7266    1414.75425       0.4295       0.7264
   1414.73899       0.4331       0.7356    1414.73899       0.4330       0.7354
   1414.72373       0.4305       0.6794    1414.72373       0.4305       0.6792
   1414.70847       0.4333       0.6883    1414.70847       0.4333       0.6881
   1414.69321       0.3954       0.6297    1414.69321       0.3954       0.6295
   1414.67795       0.4063       0.7285    1414.67795       0.4063       0.7283
   1414.66270       0.4820       0.7501    1414.66270       0.4819       0.7499
   1414.64744       0.4084       0.7411    1414.64744       0.4083       0.7409
   1414.63218       0.3888       0.6505    1414.63218       0.3888       0.6503
   1414.61692       0.4393       0.6462    1414.61692       0.4392       0.6460
   1414.60166       0.4759       0.7754    1414.60166       0.4758       0.7752
   1414.58640       0.4019       0.6836    1414.58640       0.4018       0.6834
   1414.57114       0.4761       0.7245    1414.57114       0.4760       0.7243
   1414.55588       0.3983       0.6588    1414.55588       0.3983       0.6586
   1414.54062       0.4070       0.6478    1414.54062       0.4069       0.6476
   1414.52537       0.4741       0.7524    1414.52537       0.4740       0.7522
   1414.51011       0.2666       0.6125    1414.51011       0.2666       0.6123
   1414.49485       0.4343       0.5854    1414.49485       0.4342       0.5852
   1414.47959       0.4118       0.7401    1414.47959       0.4117       0.7399
   1414.46433       0.4462       0.7454    1414.46433       0.4462       0.7452
   1414.44907       0.4380       0.6085    1414.44907       0.4379       0.6083
   1414.43381       0.4504       0.6382    1414.43381       0.4503       0.6380
   1414.41855       0.3587       0.6710    1414.41855       0.3587       0.6708
   1414.40330       0.5137       0.7806    1414.40330       0.5137       0.7804
   1414.38804       0.5033       0.7079    1414.38804       0.5032       0.7077
   1414.37278       0.4425       0.6841    1414.37278       0.4425       0.6839
   1414.35752       0.5558       0.6603    1414.35752       0.5558       0.6601
   1414.34226       0.4349       0.6874    1414.34226       0.4348       0.6872
   1414.32700       0.4513       0.6240    1414.32700       0.4513       0.6238
   1414.31174       0.3983       0.5521    1414.31174       0.3982       0.5519
   1414.29648       0.4125       0.6185    1414.29648       0.4124       0.6183
   1414.28123       0.4215       0.5978    1414.28123       0.4214       0.5976
   1414.26597       0.3766       0.6959    1414.26597       0.3766       0.6957
   1414.25071       0.4554       0.6362    1414.25071       0.4554       0.6360
   1414.23545       0.4938       0.6563    1414.23545       0.4937       0.6561
   1414.22019       0.4239       0.6348    1414.22019       0.4238       0.6346
   1414.20493       0.4346       0.5892    1414.20493       0.4345       0.5890
   1414.18967       0.5015       0.6143    1414.18967       0.5015       0.6141
   1414.17441       0.3766       0.6204    1414.17441       0.3765       0.6202
   1414.15916       0.4401       0.6605    1414.15916       0.4401       0.6603
   1414.14390       0.4367       0.6296    1414.14390       0.4366       0.6294
   1414.12864       0.3127       0.6432    1414.12864       0.3126       0.6430
   1414.11338       0.3804       0.6139    1414.11338       0.3803       0.6138
   1414.09812       0.3863       0.5269    1414.09812       0.3862       0.5267
   1414.08286       0.4449       0.6942    1414.08286       0.4448       0.6940
   1414.06760       0.4565       0.6979    1414.06760       0.4564       0.6977
   1414.05234       0.4612       0.6711    1414.05234       0.4611       0.6709
   1414.03708       0.4031       0.7109    1414.03708       0.4031       0.7107
   1414.02183       0.5373       0.7243    1414.02183       0.5372       0.7241
   1414.00657       0.4753       0.6700    1414.00657       0.4752       0.6699
   1413.99131       0.3839       0.6096    1413.99131       0.3839       0.6094
   1413.97605       0.4670       0.6475    1413.97605       0.4669       0.6473
   1413.96079       0.5033       0.5923    1413.96079       0.5032       0.5921
   1413.94553       0.4343       0.6803    1413.94553       0.4342       0.6801
   1413.93027       0.4163       0.7659    1413.93027       0.4163       0.7657
   1413.91501       0.4920       0.6959    1413.91501       0.4919       0.6957
   1413.89976       0.4256       0.6397    1413.89976       0.4255       0.6395
   1413.88450       0.5112       0.7958    1413.88450       0.5111       0.7955
   1413.86924       0.4106       0.5765    1413.86924       0.4105       0.5763
   1413.85398       0.5041       0.6976    1413.85398       0.5040       0.6974
   1413.83872       0.4759       0.5917    1413.83872       0.4758       0.5915
   1413.82346       0.5078       0.6513    1413.82346       0.5077       0.6511
   1413.80820       0.3913       0.6044    1413.80820       0.3912       0.6042
   1413.79294       0.3376       0.5945    1413.79294       0.3375       0.5943
   1413.77769       0.4593       0.7214    1413.77769       0.4592       0.7211
   1413.76243       0.4347       0.6323    1413.76243       0.4347       0.6321
   1413.74717       0.4745       0.6941    1413.74717       0.4744       0.6939
   1413.73191       0.5207       0.7356    1413.73191       0.5206       0.7354
   1413.71665       0.4151       0.6203    1413.71665       0.4150       0.6201
   1413.70139       0.4615       0.6510    1413.70139       0.4614       0.6508
   1413.68613       0.4057       0.7238    1413.68613       0.4057       0.7236
   1413.67087       0.3962       0.6349    1413.67087       0.3961       0.6347
   1413.65562       0.4415       0.5947    1413.65562       0.4414       0.5945
   1413.64036       0.3823       0.7219    1413.64036       0.3823       0.7217
   1413.62510       0.3966       0.5670    1413.62510       0.3966       0.5669
   1413.60984       0.4190       0.6217    1413.60984       0.4189       0.6216
   1413.59458       0.4671       0.5670    1413.59458       0.4670       0.5668
   1413.57932       0.3551       0.5994    1413.57932       0.3551       0.5992
   1413.56406       0.4248       0.6969    1413.56406       0.4247       0.6967
   1413.54880       0.3659       0.6872    1413.54880       0.3658       0.6870
   1413.53354       0.3696       0.6354    1413.53354       0.3696       0.6352
   1413.51829       0.4426       0.5743    1413.51829       0.4425       0.5741
   1413.50303       0.4457       0.6555    1413.50303       0.4457       0.6553
   1413.48777       0.3319       0.6601    1413.48777       0.3318       0.6600
   1413.47251       0.4351       0.5440    1413.47251       0.4350       0.5439
   1413.45725       0.3858       0.7160    1413.45725       0.3857       0.7158
   1413.44199       0.3999       0.7627    1413.44199       0.3998       0.7625
   1413.42673       0.3677       0.5707    1413.42673       0.3677       0.5705
   1413.41147       0.4255       0.5943    1413.41147       0.4255       0.5941
   1413.39622       0.4005       0.6867    1413.39622       0.4004       0.6865
