#     FILENAME=Skynet_58945_M31_30kpc_radius_44914_54517.A.onoff.cal.txt
#     BASENAME=Skynet_58945_M31_30kpc_radius_44914_54517
#      CONTROL=SKYNET
#     PROJCODE=Skynet_58945_M31_30kpc_radius_44914
#     DATAROOT=/raid/scratch/cyborg/SkynetData
#      DATADIR=/raid/scratch/cyborg
#     DATADIR2=/raid/scratch/cyborg/SkynetData/Skynet_58945_M31_30kpc_radius_4
#     SCANNAME=2020_03_09_19
#     SRC_NAME=M31_30kpc_radius
#     OBSERVER=unioncollege_21317
#     DATE_OBS=2020-04-06T16:14:14.290
#        OBSID=44914
#      SCANNUM=54517
#          MJD=58945.6765543
#          UTC=58454
#     SCANTYPE=onoff
#     DATAMODE=HIRES
#     RECEIVER=Rx1_2
#      OBSFREQ=1395.0000
# Actual_FREQ1=1423.0000,
# Actual_FREQ2=1423.0000
#    LO1Tuning=6873.0000
#     RFFILTER=1355_1435
#        OBSBW=-15.6250
#     EFFBANDW=15.6250
#        NCHAN=1024
#    STARTCHAN=51
#     STOPCHAN=972
#         TINT=0.3000
#         TBIN=0.00013107
#       ACCLEN=2048 
#     DURATION=171.60
#     EXPOSURE=124.78
#        FOCUS=36.895
#       RA,DEC=00:34:14.44, 39:17:39.19
#      RA(deg)=7.19183
#     DEC(deg)=39.29413
#   WIDTH(deg)=2.0222x0.0062
#    AZIM(deg)=78.1690
#    ELEV(deg)=83.6664
#     COORDREF=RA_DEC_
#         HREF=8.4802
#         VREF=39.2942
#      RADESYS=FK5
#       OFFSYS=RADEC
#      EQUINOX=2000.00
#     IFATTENS=21.00, 5.00
#   BALANCELEV=1.200 
#   POWER_XLYR=[0.69, 1.26] 
#       VELDEF=RADI-OBS 
#     VELOCITY=0.000 
#         NPOL=2 
#      POLMODE=Linear 
#      POLTYPE=XXYY 
#      WARNING=None 
#     NOISECAL=HI 
#       PRECAL=2 
#      POSTCAL=2 
#     CRYOTEMP=15 
#      BOXTEMP=32 
#         TSYS=XX1:72.20, YY1:75.30
#         TSYS=XX2:73.52, YY2:75.41
#         TCAL=XX1:9.18, YY1:10.14
#         TCAL=XX2:9.18, YY2:10.14
# Calibrated spectra: Tsys*(ON-OFF)/OFF 
#                
#                
#Freq1(MHz)         XX1          YY1   Freq2(MHz)       XX2         YY2 
   1430.03430     -23.5633     -30.5987    1430.03430     -23.9938     -30.6454
   1430.01904     -23.4964     -30.5282    1430.01904     -23.9257     -30.5747
   1430.00378     -23.7345     -30.6405    1430.00378     -24.1681     -30.6872
   1429.98853     -23.6369     -30.4961    1429.98853     -24.0688     -30.5426
   1429.97327     -23.5347     -30.5612    1429.97327     -23.9646     -30.6078
   1429.95801     -23.6596     -30.5862    1429.95801     -24.0918     -30.6328
   1429.94275     -23.5981     -30.6006    1429.94275     -24.0292     -30.6473
   1429.92749     -23.7341     -30.5196    1429.92749     -24.1677     -30.5662
   1429.91223     -23.5867     -30.4891    1429.91223     -24.0176     -30.5356
   1429.89697     -23.6212     -30.5581    1429.89697     -24.0528     -30.6047
   1429.88171     -23.5247     -30.5745    1429.88171     -23.9545     -30.6211
   1429.86646     -23.5514     -30.5173    1429.86646     -23.9817     -30.5639
   1429.85120     -23.6169     -30.6638    1429.85120     -24.0483     -30.7105
   1429.83594     -23.5307     -30.5683    1429.83594     -23.9606     -30.6149
   1429.82068     -23.5997     -30.4795    1429.82068     -24.0309     -30.5259
   1429.80542     -23.5120     -30.5812    1429.80542     -23.9415     -30.6278
   1429.79016     -23.6216     -30.6025    1429.79016     -24.0532     -30.6492
   1429.77490     -23.5688     -30.6598    1429.77490     -23.9994     -30.7066
   1429.75964     -23.6358     -30.6377    1429.75964     -24.0676     -30.6844
   1429.74438     -23.5920     -30.6219    1429.74438     -24.0230     -30.6686
   1429.72913     -23.5971     -30.6154    1429.72913     -24.0282     -30.6620
   1429.71387     -23.6635     -30.6337    1429.71387     -24.0959     -30.6804
   1429.69861     -23.5542     -30.6390    1429.69861     -23.9845     -30.6857
   1429.68335     -23.5222     -30.4964    1429.68335     -23.9520     -30.5429
   1429.66809     -23.6746     -30.6177    1429.66809     -24.1071     -30.6644
   1429.65283     -23.5151     -30.6437    1429.65283     -23.9447     -30.6904
   1429.63757     -23.5442     -30.5450    1429.63757     -23.9743     -30.5916
   1429.62231     -23.5434     -30.4967    1429.62231     -23.9735     -30.5432
   1429.60706     -23.5605     -30.5196    1429.60706     -23.9909     -30.5662
   1429.59180     -23.5018     -30.5512    1429.59180     -23.9311     -30.5978
   1429.57654     -23.6224     -30.6093    1429.57654     -24.0540     -30.6560
   1429.56128     -23.6436     -30.6326    1429.56128     -24.0755     -30.6793
   1429.54602     -23.6813     -30.5763    1429.54602     -24.1140     -30.6229
   1429.53076     -23.4543     -30.6349    1429.53076     -23.8828     -30.6816
   1429.51550     -23.5620     -30.7236    1429.51550     -23.9925     -30.7704
   1429.50024     -23.5319     -30.5137    1429.50024     -23.9619     -30.5602
   1429.48499     -23.5627     -30.5224    1429.48499     -23.9932     -30.5689
   1429.46973     -23.4967     -30.6921    1429.46973     -23.9260     -30.7389
   1429.45447     -23.5210     -30.5672    1429.45447     -23.9508     -30.6138
   1429.43921     -23.3742     -30.5611    1429.43921     -23.8012     -30.6077
   1429.42395     -23.4571     -30.7076    1429.42395     -23.8856     -30.7544
   1429.40869     -23.6370     -30.5221    1429.40869     -24.0689     -30.5686
   1429.39343     -23.4317     -30.6309    1429.39343     -23.8598     -30.6776
   1429.37817     -23.5039     -30.7312    1429.37817     -23.9333     -30.7781
   1429.36292     -23.3720     -30.7036    1429.36292     -23.7990     -30.7505
   1429.34766     -23.4381     -30.6978    1429.34766     -23.8663     -30.7446
   1429.33240     -23.5104     -30.6309    1429.33240     -23.9399     -30.6776
   1429.31714     -23.5686     -30.7129    1429.31714     -23.9992     -30.7597
   1429.30188     -23.4898     -30.5913    1429.30188     -23.9190     -30.6379
   1429.28662     -23.3972     -30.8094    1429.28662     -23.8246     -30.8563
   1429.27136     -23.4973     -30.5567    1429.27136     -23.9266     -30.6033
   1429.25610     -23.4166     -30.7303    1429.25610     -23.8445     -30.7771
   1429.24084     -23.4274     -30.6758    1429.24084     -23.8554     -30.7226
   1429.22559     -23.5728     -30.6826    1429.22559     -24.0034     -30.7294
   1429.21033     -23.4567     -30.6577    1429.21033     -23.8852     -30.7045
   1429.19507     -23.3982     -30.6664    1429.19507     -23.8256     -30.7132
   1429.17981     -23.4898     -30.6673    1429.17981     -23.9189     -30.7141
   1429.16455     -23.4088     -30.7719    1429.16455     -23.8365     -30.8188
   1429.14929     -23.4566     -30.6052    1429.14929     -23.8851     -30.6518
   1429.13403     -23.3884     -30.7390    1429.13403     -23.8157     -30.7859
   1429.11877     -23.5125     -30.7429    1429.11877     -23.9421     -30.7898
   1429.10352     -23.4253     -30.7577    1429.10352     -23.8533     -30.8046
   1429.08826     -23.3575     -30.7590    1429.08826     -23.7843     -30.8059
   1429.07300     -23.5506     -30.8213    1429.07300     -23.9809     -30.8683
   1429.05774     -23.3459     -30.7189    1429.05774     -23.7724     -30.7657
   1429.04248     -23.3502     -30.7397    1429.04248     -23.7768     -30.7866
   1429.02722     -23.3448     -30.7658    1429.02722     -23.7713     -30.8127
   1429.01196     -23.2063     -30.7773    1429.01196     -23.6303     -30.8242
   1428.99670     -23.3446     -30.7326    1428.99670     -23.7711     -30.7794
   1428.98145     -23.4496     -30.7683    1428.98145     -23.8780     -30.8152
   1428.96619     -23.2574     -30.7414    1428.96619     -23.6823     -30.7883
   1428.95093     -23.2250     -30.6803    1428.95093     -23.6493     -30.7271
   1428.93567     -23.3007     -30.7701    1428.93567     -23.7264     -30.8170
   1428.92041     -23.3385     -30.7598    1428.92041     -23.7648     -30.8067
   1428.90515     -23.3009     -30.7462    1428.90515     -23.7266     -30.7931
   1428.88989     -23.2827     -30.7328    1428.88989     -23.7080     -30.7796
   1428.87463     -23.3077     -30.8037    1428.87463     -23.7335     -30.8507
   1428.85938     -23.2802     -30.7964    1428.85938     -23.7056     -30.8434
   1428.84412     -23.3827     -30.8738    1428.84412     -23.8099     -30.9209
   1428.82886     -23.2058     -30.7436    1428.82886     -23.6297     -30.7904
   1428.81360     -23.3114     -30.9076    1428.81360     -23.7373     -30.9548
   1428.79834     -23.2834     -30.8497    1428.79834     -23.7088     -30.8967
   1428.78308     -23.2501     -30.8000    1428.78308     -23.6749     -30.8470
   1428.76782     -23.1855     -30.8356    1428.76782     -23.6091     -30.8826
   1428.75256     -23.3107     -30.8561    1428.75256     -23.7366     -30.9031
   1428.73730     -23.3801     -30.8402    1428.73730     -23.8073     -30.8873
   1428.72205     -23.1479     -30.6699    1428.72205     -23.5708     -30.7166
   1428.70679     -23.2299     -30.7724    1428.70679     -23.6543     -30.8193
   1428.69153     -23.3028     -30.8154    1428.69153     -23.7285     -30.8624
   1428.67627     -23.2079     -30.8491    1428.67627     -23.6319     -30.8961
   1428.66101     -23.3042     -30.9669    1428.66101     -23.7300     -31.0141
   1428.64575     -23.3168     -30.8700    1428.64575     -23.7428     -30.9171
   1428.63049     -23.2197     -30.9570    1428.63049     -23.6439     -31.0043
   1428.61523     -23.1490     -30.8457    1428.61523     -23.5719     -30.8927
   1428.59998     -23.2162     -30.7570    1428.59998     -23.6404     -30.8039
   1428.58472     -23.2932     -30.9761    1428.58472     -23.7187     -31.0233
   1428.56946     -23.2043     -31.0485    1428.56946     -23.6282     -31.0958
   1428.55420     -23.2954     -30.9903    1428.55420     -23.7210     -31.0376
   1428.53894     -23.1904     -30.9768    1428.53894     -23.6141     -31.0241
   1428.52368     -23.1668     -30.9543    1428.52368     -23.5900     -31.0015
   1428.50842     -23.3101     -30.9127    1428.50842     -23.7359     -30.9599
   1428.49316     -23.1324     -31.0594    1428.49316     -23.5550     -31.1068
   1428.47791     -23.1620     -30.9179    1428.47791     -23.5852     -30.9650
   1428.46265     -23.1592     -30.8720    1428.46265     -23.5823     -30.9190
   1428.44739     -23.2251     -30.8778    1428.44739     -23.6494     -30.9249
   1428.43213     -23.1717     -30.9165    1428.43213     -23.5951     -30.9636
   1428.41687     -23.1722     -30.9645    1428.41687     -23.5955     -31.0118
   1428.40161     -23.2717     -30.9649    1428.40161     -23.6969     -31.0121
   1428.38635     -23.1763     -30.9814    1428.38635     -23.5997     -31.0286
   1428.37109     -23.3058     -31.0785    1428.37109     -23.7316     -31.1259
   1428.35583     -23.1880     -31.0058    1428.35583     -23.6116     -31.0531
   1428.34058     -23.1387     -31.0596    1428.34058     -23.5615     -31.1070
   1428.32532     -23.2436     -30.9972    1428.32532     -23.6683     -31.0444
   1428.31006     -23.0888     -31.0168    1428.31006     -23.5106     -31.0641
   1428.29480     -23.2842     -30.9294    1428.29480     -23.7096     -30.9766
   1428.27954     -23.3643     -30.8679    1428.27954     -23.7911     -30.9150
   1428.26428     -23.1536     -30.8704    1428.26428     -23.5766     -30.9175
   1428.24902     -23.0915     -30.9515    1428.24902     -23.5134     -30.9987
   1428.23376     -23.0326     -31.0174    1428.23376     -23.4534     -31.0646
   1428.21851     -23.0478     -31.0041    1428.21851     -23.4689     -31.0514
   1428.20325     -23.2198     -31.0255    1428.20325     -23.6441     -31.0728
   1428.18799     -23.3307     -31.0096    1428.18799     -23.7569     -31.0569
   1428.17273     -23.1751     -31.0334    1428.17273     -23.5985     -31.0807
   1428.15747     -23.1113     -30.9450    1428.15747     -23.5336     -30.9922
   1428.14221     -23.1721     -31.0640    1428.14221     -23.5954     -31.1114
   1428.12695     -23.1994     -31.0473    1428.12695     -23.6233     -31.0947
   1428.11169     -23.0860     -30.9764    1428.11169     -23.5078     -31.0236
   1428.09644     -23.1901     -31.0019    1428.09644     -23.6138     -31.0492
   1428.08118     -23.1542     -31.0511    1428.08118     -23.5773     -31.0985
   1428.06592     -23.1244     -31.1114    1428.06592     -23.5469     -31.1589
   1428.05066     -23.2205     -31.0426    1428.05066     -23.6447     -31.0900
   1428.03540     -23.2272     -31.0335    1428.03540     -23.6516     -31.0808
   1428.02014     -23.2040     -30.9907    1428.02014     -23.6279     -31.0379
   1428.00488     -23.1807     -31.0457    1428.00488     -23.6043     -31.0931
   1427.98962     -23.1267     -31.1272    1427.98962     -23.5492     -31.1747
   1427.97437     -23.1131     -31.0866    1427.97437     -23.5354     -31.1340
   1427.95911     -23.0474     -31.0588    1427.95911     -23.4685     -31.1061
   1427.94385     -23.1491     -31.0831    1427.94385     -23.5720     -31.1305
   1427.92859     -23.1478     -31.1586    1427.92859     -23.5708     -31.2062
   1427.91333     -23.1360     -31.1062    1427.91333     -23.5587     -31.1536
   1427.89807     -23.0688     -31.0634    1427.89807     -23.4902     -31.1108
   1427.88281     -23.0819     -31.1340    1427.88281     -23.5036     -31.1815
   1427.86755     -23.1148     -31.1920    1427.86755     -23.5371     -31.2396
   1427.85229     -23.1621     -31.1046    1427.85229     -23.5853     -31.1521
   1427.83704     -23.0435     -31.0798    1427.83704     -23.4645     -31.1272
   1427.82178     -23.1387     -31.1285    1427.82178     -23.5615     -31.1759
   1427.80652     -23.1829     -31.1159    1427.80652     -23.6065     -31.1633
   1427.79126     -23.1801     -31.1261    1427.79126     -23.6036     -31.1735
   1427.77600     -23.1163     -31.1371    1427.77600     -23.5387     -31.1846
   1427.76074     -23.1419     -31.1421    1427.76074     -23.5647     -31.1896
   1427.74548     -23.2374     -31.1329    1427.74548     -23.6620     -31.1804
   1427.73022     -23.1110     -31.0313    1427.73022     -23.5332     -31.0786
   1427.71497     -23.1965     -31.1483    1427.71497     -23.6203     -31.1958
   1427.69971     -23.2292     -31.1756    1427.69971     -23.6536     -31.2231
   1427.68445     -23.1067     -31.2167    1427.68445     -23.5288     -31.2643
   1427.66919     -23.0854     -31.2735    1427.66919     -23.5071     -31.3212
   1427.65393     -23.0196     -31.1657    1427.65393     -23.4402     -31.2133
   1427.63867     -23.1212     -31.1454    1427.63867     -23.5436     -31.1929
   1427.62341     -23.0644     -31.2348    1427.62341     -23.4858     -31.2825
   1427.60815     -23.0559     -31.2064    1427.60815     -23.4772     -31.2540
   1427.59290     -23.1157     -31.1614    1427.59290     -23.5380     -31.2089
   1427.57764     -23.1487     -31.1695    1427.57764     -23.5716     -31.2170
   1427.56238     -23.1292     -31.1917    1427.56238     -23.5517     -31.2393
   1427.54712     -23.1624     -31.1464    1427.54712     -23.5856     -31.1939
   1427.53186     -23.1455     -31.2042    1427.53186     -23.5683     -31.2517
   1427.51660     -23.1367     -31.2368    1427.51660     -23.5594     -31.2845
   1427.50134     -23.1563     -31.3204    1427.50134     -23.5794     -31.3682
   1427.48608     -23.1843     -31.2634    1427.48608     -23.6079     -31.3111
   1427.47083     -23.1507     -31.3189    1427.47083     -23.5736     -31.3666
   1427.45557     -23.1708     -31.2704    1427.45557     -23.5941     -31.3181
   1427.44031     -23.1819     -31.2376    1427.44031     -23.6055     -31.2852
   1427.42505     -23.1424     -31.1966    1427.42505     -23.5652     -31.2442
   1427.40979     -23.1463     -31.2218    1427.40979     -23.5692     -31.2694
   1427.39453     -23.0420     -31.2225    1427.39453     -23.4630     -31.2701
   1427.37927     -23.0698     -31.2375    1427.37927     -23.4912     -31.2851
   1427.36401     -23.0660     -31.2896    1427.36401     -23.4874     -31.3373
   1427.34875     -23.0598     -31.1270    1427.34875     -23.4811     -31.1745
   1427.33350     -23.1454     -31.2019    1427.33350     -23.5683     -31.2495
   1427.31824     -23.0798     -31.2274    1427.31824     -23.5015     -31.2750
   1427.30298     -23.0786     -31.2256    1427.30298     -23.5002     -31.2733
   1427.28772     -23.0493     -31.1497    1427.28772     -23.4704     -31.1972
   1427.27246     -22.9382     -31.1968    1427.27246     -23.3573     -31.2444
   1427.25720     -23.1152     -31.2536    1427.25720     -23.5376     -31.3012
   1427.24194     -23.0725     -31.2022    1427.24194     -23.4940     -31.2498
   1427.22668     -23.0423     -31.2008    1427.22668     -23.4633     -31.2483
   1427.21143     -23.0936     -31.3904    1427.21143     -23.5155     -31.4383
   1427.19617     -23.2408     -31.2148    1427.19617     -23.6654     -31.2624
   1427.18091     -23.0736     -31.2872    1427.18091     -23.4951     -31.3349
   1427.16565     -23.0330     -31.3585    1427.16565     -23.4538     -31.4063
   1427.15039     -23.1645     -31.2825    1427.15039     -23.5877     -31.3302
   1427.13513     -23.2389     -31.3449    1427.13513     -23.6635     -31.3927
   1427.11987     -23.2071     -31.2613    1427.11987     -23.6310     -31.3089
   1427.10461     -23.1932     -31.2099    1427.10461     -23.6169     -31.2575
   1427.08936     -23.1568     -31.3046    1427.08936     -23.5798     -31.3523
   1427.07410     -23.1832     -31.2343    1427.07410     -23.6068     -31.2819
   1427.05884     -23.2580     -31.2503    1427.05884     -23.6830     -31.2980
   1427.04358     -23.1440     -31.3243    1427.04358     -23.5668     -31.3721
   1427.02832     -23.1384     -31.2946    1427.02832     -23.5611     -31.3423
   1427.01306     -23.0572     -31.2470    1427.01306     -23.4785     -31.2946
   1426.99780     -23.1635     -31.3051    1426.99780     -23.5867     -31.3528
   1426.98254     -23.1033     -31.2570    1426.98254     -23.5254     -31.3046
   1426.96729     -23.2380     -31.2848    1426.96729     -23.6626     -31.3325
   1426.95203     -23.0431     -31.4058    1426.95203     -23.4641     -31.4537
   1426.93677     -23.1485     -31.2870    1426.93677     -23.5714     -31.3347
   1426.92151     -23.1764     -31.3001    1426.92151     -23.5999     -31.3478
   1426.90625     -23.1210     -31.2267    1426.90625     -23.5434     -31.2743
   1426.89099     -23.1252     -31.3735    1426.89099     -23.5477     -31.4214
   1426.87573     -23.2142     -31.2834    1426.87573     -23.6383     -31.3311
   1426.86047     -23.1936     -31.1924    1426.86047     -23.6174     -31.2399
   1426.84521     -23.1210     -31.3075    1426.84521     -23.5434     -31.3552
   1426.82996     -23.2070     -31.3089    1426.82996     -23.6310     -31.3566
   1426.81470     -23.2425     -31.4121    1426.81470     -23.6671     -31.4600
   1426.79944     -23.2507     -31.2796    1426.79944     -23.6755     -31.3273
   1426.78418     -23.1007     -31.2533    1426.78418     -23.5227     -31.3010
   1426.76892     -23.1252     -31.3042    1426.76892     -23.5476     -31.3519
   1426.75366     -23.1435     -31.3235    1426.75366     -23.5663     -31.3713
   1426.73840     -23.1573     -31.2639    1426.73840     -23.5804     -31.3116
   1426.72314     -23.0993     -31.2462    1426.72314     -23.5213     -31.2938
   1426.70789     -23.2411     -31.3477    1426.70789     -23.6657     -31.3955
   1426.69263     -23.1588     -31.2413    1426.69263     -23.5819     -31.2890
   1426.67737     -23.1340     -31.3142    1426.67737     -23.5567     -31.3620
   1426.66211     -22.7188     -31.1853    1426.66211     -23.1338     -31.2329
   1426.64685     -23.2089     -31.4001    1426.64685     -23.6329     -31.4480
   1426.63159     -23.2828     -31.3233    1426.63159     -23.7081     -31.3710
   1426.61633     -23.1337     -31.3209    1426.61633     -23.5563     -31.3687
   1426.60107     -23.0129     -31.3428    1426.60107     -23.4333     -31.3906
   1426.58582     -23.1298     -31.3291    1426.58582     -23.5524     -31.3768
   1426.57056     -23.1830     -31.2302    1426.57056     -23.6065     -31.2778
   1426.55530     -23.1532     -31.2967    1426.55530     -23.5762     -31.3444
   1426.54004     -23.1428     -31.3561    1426.54004     -23.5656     -31.4039
   1426.52478     -23.1056     -31.2782    1426.52478     -23.5277     -31.3259
   1426.50952     -23.0985     -31.3040    1426.50952     -23.5205     -31.3517
   1426.49426     -23.2209     -31.3997    1426.49426     -23.6451     -31.4476
   1426.47900     -23.0954     -31.3875    1426.47900     -23.5174     -31.4354
   1426.46375     -23.1223     -31.3524    1426.46375     -23.5448     -31.4002
   1426.44849     -23.1181     -31.3637    1426.44849     -23.5405     -31.4115
   1426.43323     -23.1537     -31.3838    1426.43323     -23.5768     -31.4316
   1426.41797     -23.2176     -31.3859    1426.41797     -23.6418     -31.4338
   1426.40271     -23.2065     -31.4363    1426.40271     -23.6305     -31.4842
   1426.38745     -23.1250     -31.3235    1426.38745     -23.5474     -31.3713
   1426.37219     -23.1432     -31.3562    1426.37219     -23.5660     -31.4040
   1426.35693     -23.0268     -31.3648    1426.35693     -23.4475     -31.4127
   1426.34167     -23.1184     -31.2818    1426.34167     -23.5408     -31.3295
   1426.32642     -23.1239     -31.3200    1426.32642     -23.5464     -31.3677
   1426.31116     -23.1113     -31.2776    1426.31116     -23.5336     -31.3253
   1426.29590     -23.1910     -31.3567    1426.29590     -23.6147     -31.4045
   1426.28064     -23.1458     -31.2743    1426.28064     -23.5687     -31.3220
   1426.26538     -23.0504     -31.2415    1426.26538     -23.4716     -31.2891
   1426.25012     -23.2461     -31.2953    1426.25012     -23.6708     -31.3430
   1426.23486     -23.0382     -31.3826    1426.23486     -23.4591     -31.4305
   1426.21960     -23.1122     -31.3897    1426.21960     -23.5344     -31.4376
   1426.20435     -23.0547     -31.3391    1426.20435     -23.4759     -31.3869
   1426.18909     -23.1851     -31.3113    1426.18909     -23.6087     -31.3590
   1426.17383     -23.1175     -31.3372    1426.17383     -23.5399     -31.3849
   1426.15857     -23.1160     -31.3539    1426.15857     -23.5384     -31.4017
   1426.14331     -23.1459     -31.2903    1426.14331     -23.5688     -31.3380
   1426.12805     -23.1218     -31.3313    1426.12805     -23.5442     -31.3791
   1426.11279     -23.1504     -31.3689    1426.11279     -23.5733     -31.4168
   1426.09753     -23.1651     -31.3375    1426.09753     -23.5883     -31.3852
   1426.08228     -23.1657     -31.3519    1426.08228     -23.5889     -31.3997
   1426.06702     -23.1065     -31.3597    1426.06702     -23.5286     -31.4076
   1426.05176     -23.0703     -31.3038    1426.05176     -23.4918     -31.3516
   1426.03650     -23.0727     -31.3063    1426.03650     -23.4943     -31.3541
   1426.02124     -23.0611     -31.4064    1426.02124     -23.4824     -31.4542
   1426.00598     -23.1043     -31.3235    1426.00598     -23.5264     -31.3713
   1425.99072     -23.1125     -31.3284    1425.99072     -23.5348     -31.3762
   1425.97546     -23.0903     -31.4240    1425.97546     -23.5122     -31.4719
   1425.96021     -23.0700     -31.3387    1425.96021     -23.4915     -31.3865
   1425.94495     -23.2394     -31.3741    1425.94495     -23.6640     -31.4219
   1425.92969     -23.0861     -31.2919    1425.92969     -23.5078     -31.3396
   1425.91443     -23.0546     -31.4391    1425.91443     -23.4758     -31.4871
   1425.89917     -23.1403     -31.4313    1425.89917     -23.5630     -31.4793
   1425.88391     -23.1142     -31.3902    1425.88391     -23.5365     -31.4381
   1425.86865     -23.0491     -31.3643    1425.86865     -23.4702     -31.4121
   1425.85339     -23.0425     -31.2285    1425.85339     -23.4635     -31.2761
   1425.83813     -23.1159     -31.3538    1425.83813     -23.5383     -31.4016
   1425.82288     -23.0415     -31.3091    1425.82288     -23.4624     -31.3568
   1425.80762     -23.0976     -31.4065    1425.80762     -23.5196     -31.4544
   1425.79236     -23.0719     -31.3071    1425.79236     -23.4934     -31.3549
   1425.77710     -23.1124     -31.2848    1425.77710     -23.5347     -31.3325
   1425.76184     -23.1492     -31.2677    1425.76184     -23.5721     -31.3154
   1425.74658     -23.0930     -31.3012    1425.74658     -23.5149     -31.3489
   1425.73132     -23.0289     -31.3736    1425.73132     -23.4496     -31.4214
   1425.71606     -23.0658     -31.3698    1425.71606     -23.4872     -31.4176
   1425.70081     -23.0093     -31.3611    1425.70081     -23.4296     -31.4090
   1425.68555     -23.1328     -31.2691    1425.68555     -23.5555     -31.3168
   1425.67029     -23.0149     -31.3677    1425.67029     -23.4353     -31.4155
   1425.65503     -23.0103     -31.3486    1425.65503     -23.4307     -31.3964
   1425.63977     -23.0668     -31.2669    1425.63977     -23.4883     -31.3146
   1425.62451     -23.0321     -31.3638    1425.62451     -23.4529     -31.4116
   1425.60925     -23.0970     -31.2881    1425.60925     -23.5190     -31.3359
   1425.59399     -23.0060     -31.3674    1425.59399     -23.4263     -31.4153
   1425.57874     -23.0142     -31.2071    1425.57874     -23.4347     -31.2547
   1425.56348     -23.0223     -31.3314    1425.56348     -23.4429     -31.3792
   1425.54822     -23.1005     -31.2935    1425.54822     -23.5225     -31.3412
   1425.53296     -23.0430     -31.3320    1425.53296     -23.4639     -31.3797
   1425.51770     -23.0524     -31.3065    1425.51770     -23.4736     -31.3542
   1425.50244     -22.9373     -31.2679    1425.50244     -23.3563     -31.3156
   1425.48718     -23.0418     -31.3401    1425.48718     -23.4628     -31.3879
   1425.47192     -23.0828     -31.3647    1425.47192     -23.5046     -31.4126
   1425.45667     -23.0667     -31.3189    1425.45667     -23.4881     -31.3667
   1425.44141     -23.0710     -31.2770    1425.44141     -23.4925     -31.3247
   1425.42615     -22.9876     -31.2392    1425.42615     -23.4075     -31.2869
   1425.41089     -22.9816     -31.3724    1425.41089     -23.4015     -31.4203
   1425.39563     -22.9615     -31.3131    1425.39563     -23.3810     -31.3609
   1425.38037     -23.0488     -31.2280    1425.38037     -23.4699     -31.2757
   1425.36511     -22.9481     -31.2721    1425.36511     -23.3674     -31.3198
   1425.34985     -22.9580     -31.3289    1425.34985     -23.3775     -31.3767
   1425.33459     -22.9608     -31.2868    1425.33459     -23.3803     -31.3345
   1425.31934     -22.8658     -31.2718    1425.31934     -23.2835     -31.3195
   1425.30408     -22.9975     -31.2470    1425.30408     -23.4177     -31.2946
   1425.28882     -22.9980     -31.2261    1425.28882     -23.4182     -31.2737
   1425.27356     -22.9667     -31.1588    1425.27356     -23.3863     -31.2063
   1425.25830     -23.0102     -31.3449    1425.25830     -23.4305     -31.3927
   1425.24304     -23.0410     -31.3383    1425.24304     -23.4620     -31.3861
   1425.22778     -22.9633     -31.2756    1425.22778     -23.3828     -31.3233
   1425.21252     -23.0431     -31.3054    1425.21252     -23.4641     -31.3531
   1425.19727     -23.0637     -31.2825    1425.19727     -23.4850     -31.3302
   1425.18201     -22.9134     -31.2348    1425.18201     -23.3320     -31.2824
   1425.16675     -23.0310     -31.2442    1425.16675     -23.4518     -31.2919
   1425.15149     -23.0033     -31.2075    1425.15149     -23.4235     -31.2550
   1425.13623     -23.0148     -31.0875    1425.13623     -23.4353     -31.1349
   1425.12097     -23.0411     -31.1952    1425.12097     -23.4621     -31.2428
   1425.10571     -23.0551     -31.2629    1425.10571     -23.4763     -31.3105
   1425.09045     -22.9333     -31.3161    1425.09045     -23.3523     -31.3639
   1425.07520     -22.9601     -31.2849    1425.07520     -23.3795     -31.3326
   1425.05994     -22.9582     -31.2729    1425.05994     -23.3776     -31.3206
   1425.04468     -22.9790     -31.2340    1425.04468     -23.3989     -31.2816
   1425.02942     -23.0302     -31.1878    1425.02942     -23.4509     -31.2353
   1425.01416     -23.0478     -31.2526    1425.01416     -23.4688     -31.3003
   1424.99890     -22.9747     -31.0926    1424.99890     -23.3944     -31.1400
   1424.98364     -23.0255     -31.1729    1424.98364     -23.4462     -31.2204
   1424.96838     -23.0247     -31.1395    1424.96838     -23.4454     -31.1870
   1424.95312     -23.0051     -31.2388    1424.95312     -23.4254     -31.2864
   1424.93787     -23.0071     -31.2921    1424.93787     -23.4275     -31.3399
   1424.92261     -23.0850     -31.2137    1424.92261     -23.5068     -31.2613
   1424.90735     -22.9426     -31.1905    1424.90735     -23.3618     -31.2381
   1424.89209     -22.8528     -31.1524    1424.89209     -23.2704     -31.1999
   1424.87683     -23.0572     -31.1233    1424.87683     -23.4784     -31.1707
   1424.86157     -22.9975     -31.2651    1424.86157     -23.4177     -31.3128
   1424.84631     -23.0248     -31.3330    1424.84631     -23.4455     -31.3807
   1424.83105     -23.0598     -31.2155    1424.83105     -23.4811     -31.2631
   1424.81580     -23.0061     -31.3179    1424.81580     -23.4264     -31.3656
   1424.80054     -22.9203     -31.2673    1424.80054     -23.3390     -31.3150
   1424.78528     -22.9274     -31.2085    1424.78528     -23.3462     -31.2561
   1424.77002     -23.0076     -31.1081    1424.77002     -23.4279     -31.1556
   1424.75476     -23.0134     -31.1652    1424.75476     -23.4338     -31.2127
   1424.73950     -23.0190     -31.2925    1424.73950     -23.4395     -31.3402
   1424.72424     -23.0313     -31.2371    1424.72424     -23.4520     -31.2847
   1424.70898     -23.0186     -31.2368    1424.70898     -23.4391     -31.2844
   1424.69373     -22.9808     -31.1098    1424.69373     -23.4007     -31.1572
   1424.67847     -23.0190     -31.2165    1424.67847     -23.4395     -31.2641
   1424.66321     -23.0389     -31.1310    1424.66321     -23.4598     -31.1785
   1424.64795     -23.0625     -31.1742    1424.64795     -23.4839     -31.2218
   1424.63269     -22.9814     -31.2080    1424.63269     -23.4013     -31.2556
   1424.61743     -22.9831     -31.2249    1424.61743     -23.4030     -31.2725
   1424.60217     -22.9787     -31.0634    1424.60217     -23.3985     -31.1108
   1424.58691     -22.9729     -31.2054    1424.58691     -23.3926     -31.2530
   1424.57166     -22.9858     -31.1682    1424.57166     -23.4058     -31.2158
   1424.55640     -23.0173     -31.1579    1424.55640     -23.4378     -31.2054
   1424.54114     -23.0507     -31.0819    1424.54114     -23.4719     -31.1293
   1424.52588     -23.0108     -31.1150    1424.52588     -23.4312     -31.1624
   1424.51062     -22.9936     -31.1500    1424.51062     -23.4137     -31.1975
   1424.49536     -22.9947     -31.0968    1424.49536     -23.4148     -31.1443
   1424.48010     -23.0121     -31.0131    1424.48010     -23.4325     -31.0604
   1424.46484     -23.0800     -31.1355    1424.46484     -23.5017     -31.1829
   1424.44958     -23.0010     -31.1856    1424.44958     -23.4212     -31.2331
   1424.43433     -22.9943     -31.1171    1424.43433     -23.4144     -31.1645
   1424.41907     -22.9923     -31.1556    1424.41907     -23.4124     -31.2031
   1424.40381     -23.0458     -31.1427    1424.40381     -23.4669     -31.1902
   1424.38855     -22.8710     -31.1006    1424.38855     -23.2889     -31.1481
   1424.37329     -22.9777     -31.1153    1424.37329     -23.3975     -31.1628
   1424.35803     -23.0203     -31.1973    1424.35803     -23.4409     -31.2449
   1424.34277     -22.9343     -31.1913    1424.34277     -23.3533     -31.2388
   1424.32751     -23.0036     -31.1522    1424.32751     -23.4239     -31.1997
   1424.31226     -22.9653     -31.2105    1424.31226     -23.3849     -31.2581
   1424.29700     -23.0348     -31.0963    1424.29700     -23.4556     -31.1437
   1424.28174     -22.9628     -31.0477    1424.28174     -23.3823     -31.0951
   1424.26648     -23.0679     -31.0624    1424.26648     -23.4893     -31.1098
   1424.25122     -22.9875     -31.0411    1424.25122     -23.4075     -31.0884
   1424.23596     -23.0095     -31.1311    1424.23596     -23.4299     -31.1785
   1424.22070     -22.9378     -31.0948    1424.22070     -23.3569     -31.1422
   1424.20544     -22.9645     -31.0692    1424.20544     -23.3840     -31.1166
   1424.19019     -22.9924     -30.9975    1424.19019     -23.4125     -31.0447
   1424.17493     -22.9960     -31.1016    1424.17493     -23.4161     -31.1490
   1424.15967     -22.8420     -31.0369    1424.15967     -23.2593     -31.0842
   1424.14441     -23.0655     -30.9313    1424.14441     -23.4869     -30.9785
   1424.12915     -22.9967     -31.0231    1424.12915     -23.4168     -31.0704
   1424.11389     -22.8907     -31.1192    1424.11389     -23.3089     -31.1667
   1424.09863     -23.0487     -31.0978    1424.09863     -23.4698     -31.1452
   1424.08337     -23.0501     -31.1456    1424.08337     -23.4712     -31.1931
   1424.06812     -22.9668     -31.0741    1424.06812     -23.3864     -31.1215
   1424.05286     -22.9522     -31.0992    1424.05286     -23.3715     -31.1467
   1424.03760     -23.1003     -31.0241    1424.03760     -23.5224     -31.0714
   1424.02234     -22.8649     -30.9777    1424.02234     -23.2826     -31.0249
   1424.00708     -23.0218     -31.0204    1424.00708     -23.4424     -31.0677
   1423.99182     -22.8938     -31.0515    1423.99182     -23.3121     -31.0988
   1423.97656     -23.0316     -31.0413    1423.97656     -23.4524     -31.0886
   1423.96130     -23.0193     -31.0161    1423.96130     -23.4399     -31.0634
   1423.94604     -23.0101     -31.0720    1423.94604     -23.4305     -31.1194
   1423.93079     -22.8807     -31.0174    1423.93079     -23.2987     -31.0647
   1423.91553     -22.9945     -31.0503    1423.91553     -23.4146     -31.0976
   1423.90027     -22.9463     -31.0710    1423.90027     -23.3656     -31.1184
   1423.88501     -22.9474     -31.1275    1423.88501     -23.3667     -31.1750
   1423.86975     -23.0404     -31.0823    1423.86975     -23.4613     -31.1296
   1423.85449     -22.9863     -31.1186    1423.85449     -23.4063     -31.1661
   1423.83923     -22.9760     -31.0789    1423.83923     -23.3958     -31.1263
   1423.82397     -22.9596     -31.0487    1423.82397     -23.3790     -31.0960
   1423.80872     -22.9129     -31.0711    1423.80872     -23.3315     -31.1185
   1423.79346     -22.9672     -31.0354    1423.79346     -23.3868     -31.0828
   1423.77820     -23.0292     -31.0003    1423.77820     -23.4500     -31.0476
   1423.76294     -22.8716     -31.0061    1423.76294     -23.2895     -31.0534
   1423.74768     -22.8857     -31.0152    1423.74768     -23.3038     -31.0625
   1423.73242     -22.8508     -30.9813    1423.73242     -23.2683     -31.0285
   1423.71716     -22.8046     -30.9925    1423.71716     -23.2213     -31.0397
   1423.70190     -22.9820     -30.9601    1423.70190     -23.4018     -31.0073
   1423.68665     -22.9226     -30.9257    1423.68665     -23.3414     -30.9728
   1423.67139     -22.9646     -30.8997    1423.67139     -23.3841     -30.9468
   1423.65613     -22.8821     -30.9634    1423.65613     -23.3001     -31.0106
   1423.64087     -22.9199     -30.9192    1423.64087     -23.3386     -30.9663
   1423.62561     -23.0313     -30.8616    1423.62561     -23.4521     -30.9086
   1423.61035     -22.8953     -30.9699    1423.61035     -23.3136     -31.0171
   1423.59509     -22.9178     -30.9380    1423.59509     -23.3365     -30.9852
   1423.57983     -22.9283     -30.9413    1423.57983     -23.3472     -30.9884
   1423.56458     -22.9172     -30.9005    1423.56458     -23.3359     -30.9476
   1423.54932     -22.9355     -30.9162    1423.54932     -23.3546     -30.9634
   1423.53406     -22.8447     -30.9707    1423.53406     -23.2620     -31.0179
   1423.51880     -22.8564     -30.8652    1423.51880     -23.2740     -30.9122
   1423.50354     -22.8024     -30.9832    1423.50354     -23.2189     -31.0305
   1423.48828     -22.9554     -30.9838    1423.48828     -23.3747     -31.0310
   1423.47302     -22.9242     -30.8246    1423.47302     -23.3431     -30.8716
   1423.45776     -22.8661     -31.0378    1423.45776     -23.2838     -31.0851
   1423.44250     -22.8249     -30.8680    1423.44250     -23.2419     -30.9150
   1423.42725     -22.8927     -30.9836    1423.42725     -23.3109     -31.0308
   1423.41199     -22.8576     -30.9032    1423.41199     -23.2752     -30.9504
   1423.39673     -22.9131     -30.9147    1423.39673     -23.3317     -30.9618
   1423.38147     -22.9917     -30.9396    1423.38147     -23.4118     -30.9867
   1423.36621     -22.7647     -30.9267    1423.36621     -23.1806     -30.9738
   1423.35095     -22.8589     -30.8841    1423.35095     -23.2765     -30.9312
   1423.33569     -22.8767     -30.8777    1423.33569     -23.2947     -30.9247
   1423.32043     -22.8642     -30.7690    1423.32043     -23.2820     -30.8159
   1423.30518     -22.9117     -30.9278    1423.30518     -23.3303     -30.9750
   1423.28992     -22.9419     -30.8742    1423.28992     -23.3610     -30.9213
   1423.27466     -22.8771     -30.8648    1423.27466     -23.2951     -30.9119
   1423.25940     -22.9541     -30.8844    1423.25940     -23.3734     -30.9315
   1423.24414     -22.8993     -30.7970    1423.24414     -23.3177     -30.8439
   1423.22888     -22.8763     -30.8321    1423.22888     -23.2942     -30.8791
   1423.21362     -22.8046     -30.7620    1423.21362     -23.2212     -30.8090
   1423.19836     -22.8125     -30.8487    1423.19836     -23.2293     -30.8957
   1423.18311     -22.8868     -30.8653    1423.18311     -23.3049     -30.9123
   1423.16785     -22.8243     -30.8073    1423.16785     -23.2413     -30.8542
   1423.15259     -22.8478     -30.8485    1423.15259     -23.2652     -30.8956
   1423.13733     -22.8062     -30.8190    1423.13733     -23.2229     -30.8660
   1423.12207     -22.8480     -30.9265    1423.12207     -23.2654     -30.9736
   1423.10681     -22.8524     -30.8644    1423.10681     -23.2699     -30.9114
   1423.09155     -22.8578     -30.8651    1423.09155     -23.2754     -30.9121
   1423.07629     -22.8507     -30.8548    1423.07629     -23.2682     -30.9019
   1423.06104     -22.8890     -30.8162    1423.06104     -23.3072     -30.8632
   1423.04578     -22.7740     -30.7854    1423.04578     -23.1901     -30.8324
   1423.03052     -22.7180     -30.6532    1423.03052     -23.1330     -30.6999
   1423.01526     -22.5252     -30.5642    1423.01526     -22.9367     -30.6108
   1423.00000     -22.6702     -30.4659    1423.00000     -23.0844     -30.5123
   1422.98474     -22.8028     -30.3981    1422.98474     -23.2194     -30.4444
   1422.96948     -22.8567     -30.7621    1422.96948     -23.2743     -30.8091
   1422.95422     -22.8008     -30.7647    1422.95422     -23.2174     -30.8116
   1422.93896     -22.6649     -30.7288    1422.93896     -23.0790     -30.7756
   1422.92371     -22.6799     -30.6254    1422.92371     -23.0943     -30.6721
   1422.90845     -22.5628     -30.4851    1422.90845     -22.9750     -30.5316
   1422.89319     -22.3986     -30.4821    1422.89319     -22.8078     -30.5286
   1422.87793     -22.3516     -30.3361    1422.87793     -22.7600     -30.3824
   1422.86267     -22.2341     -30.2939    1422.86267     -22.6403     -30.3401
   1422.84741     -22.2723     -30.3224    1422.84741     -22.6792     -30.3687
   1422.83215     -22.2748     -30.4064    1422.83215     -22.6818     -30.4528
   1422.81689     -22.3399     -30.4367    1422.81689     -22.7481     -30.4831
   1422.80164     -22.3641     -30.3624    1422.80164     -22.7727     -30.4087
   1422.78638     -22.6317     -30.4774    1422.78638     -23.0451     -30.5239
   1422.77112     -22.6391     -30.6472    1422.77112     -23.0527     -30.6940
   1422.75586     -22.6315     -30.6295    1422.75586     -23.0449     -30.6762
   1422.74060     -22.7288     -30.6796    1422.74060     -23.1441     -30.7264
   1422.72534     -22.6051     -30.6470    1422.72534     -23.0181     -30.6937
   1422.71008     -22.6171     -30.7661    1422.71008     -23.0303     -30.8130
   1422.69482     -22.6596     -30.7152    1422.69482     -23.0735     -30.7621
   1422.67957     -22.6841     -30.5897    1422.67957     -23.0985     -30.6363
   1422.66431     -22.7601     -30.6849    1422.66431     -23.1759     -30.7317
   1422.64905     -22.6141     -30.7583    1422.64905     -23.0272     -30.8052
   1422.63379     -22.7037     -30.7325    1422.63379     -23.1185     -30.7794
   1422.61853     -22.7421     -30.7054    1422.61853     -23.1576     -30.7522
   1422.60327     -22.5074     -30.6878    1422.60327     -22.9186     -30.7346
   1422.58801     -22.7224     -30.6887    1422.58801     -23.1376     -30.7355
   1422.57275     -22.6391     -30.7394    1422.57275     -23.0527     -30.7863
   1422.55750     -22.7073     -30.6786    1422.55750     -23.1222     -30.7254
   1422.54224     -22.6553     -30.6811    1422.54224     -23.0692     -30.7279
   1422.52698     -22.5594     -30.6877    1422.52698     -22.9716     -30.7345
   1422.51172     -22.6338     -30.7090    1422.51172     -23.0473     -30.7558
   1422.49646     -22.4704     -30.6196    1422.49646     -22.8809     -30.6663
   1422.48120     -22.5978     -30.6842    1422.48120     -23.0107     -30.7310
   1422.46594     -22.6437     -30.6412    1422.46594     -23.0574     -30.6880
   1422.45068     -22.5567     -30.7710    1422.45068     -22.9688     -30.8179
   1422.43542     -22.5828     -30.6329    1422.43542     -22.9953     -30.6796
   1422.42017     -22.5292     -30.7202    1422.42017     -22.9408     -30.7670
   1422.40491     -22.4905     -30.6756    1422.40491     -22.9014     -30.7223
   1422.38965     -22.4908     -30.5735    1422.38965     -22.9017     -30.6201
   1422.37439     -22.4979     -30.6708    1422.37439     -22.9089     -30.7175
   1422.35913     -22.6713     -30.7798    1422.35913     -23.0854     -30.8267
   1422.34387     -22.5178     -30.6915    1422.34387     -22.9292     -30.7383
   1422.32861     -22.4519     -30.7388    1422.32861     -22.8621     -30.7857
   1422.31335     -22.4326     -30.6471    1422.31335     -22.8425     -30.6938
   1422.29810     -22.4479     -30.6669    1422.29810     -22.8580     -30.7137
   1422.28284     -22.4243     -30.6510    1422.28284     -22.8340     -30.6977
   1422.26758     -22.4352     -30.6431    1422.26758     -22.8451     -30.6898
   1422.25232     -22.4494     -30.6128    1422.25232     -22.8595     -30.6595
   1422.23706     -22.5072     -30.6100    1422.23706     -22.9184     -30.6567
   1422.22180     -22.3897     -30.6346    1422.22180     -22.7987     -30.6813
   1422.20654     -22.2921     -30.6544    1422.20654     -22.6993     -30.7011
   1422.19128     -22.3338     -30.6149    1422.19128     -22.7418     -30.6616
   1422.17603     -22.4327     -30.7561    1422.17603     -22.8426     -30.8030
   1422.16077     -22.4888     -30.5503    1422.16077     -22.8997     -30.5969
   1422.14551     -22.4616     -30.6304    1422.14551     -22.8720     -30.6771
   1422.13025     -22.4048     -30.5554    1422.13025     -22.8141     -30.6020
   1422.11499     -22.3683     -30.6248    1422.11499     -22.7769     -30.6715
   1422.09973     -22.3091     -30.5868    1422.09973     -22.7166     -30.6334
   1422.08447     -22.2681     -30.5502    1422.08447     -22.6749     -30.5968
   1422.06921     -22.3733     -30.5673    1422.06921     -22.7821     -30.6139
   1422.05396     -22.3477     -30.5489    1422.05396     -22.7559     -30.5955
   1422.03870     -22.4481     -30.5336    1422.03870     -22.8582     -30.5801
   1422.02344     -22.4218     -30.5890    1422.02344     -22.8315     -30.6356
   1422.00818     -22.4733     -30.4528    1422.00818     -22.8839     -30.4993
   1421.99292     -22.3525     -30.5324    1421.99292     -22.7609     -30.5790
   1421.97766     -22.2643     -30.4306    1421.97766     -22.6710     -30.4770
   1421.96240     -22.3205     -30.4991    1421.96240     -22.7283     -30.5456
   1421.94714     -22.2425     -30.5075    1421.94714     -22.6489     -30.5541
   1421.93188     -22.1845     -30.4926    1421.93188     -22.5898     -30.5391
   1421.91663     -22.2281     -30.4746    1421.91663     -22.6342     -30.5211
   1421.90137     -22.1853     -30.6197    1421.90137     -22.5907     -30.6664
   1421.88611     -22.1808     -30.5721    1421.88611     -22.5861     -30.6188
   1421.87085     -22.3194     -30.4556    1421.87085     -22.7271     -30.5021
   1421.85559     -22.3154     -30.4648    1421.85559     -22.7231     -30.5112
   1421.84033     -22.2511     -30.4773    1421.84033     -22.6577     -30.5238
   1421.82507     -22.2985     -30.4628    1421.82507     -22.7059     -30.5093
   1421.80981     -22.1998     -30.4522    1421.80981     -22.6054     -30.4986
   1421.79456     -22.2822     -30.4185    1421.79456     -22.6893     -30.4649
   1421.77930     -22.2174     -30.5281    1421.77930     -22.6233     -30.5746
   1421.76404     -22.2322     -30.5325    1421.76404     -22.6384     -30.5790
   1421.74878     -22.2031     -30.4312    1421.74878     -22.6087     -30.4776
   1421.73352     -22.0892     -30.5161    1421.73352     -22.4928     -30.5626
   1421.71826     -22.0657     -30.4144    1421.71826     -22.4689     -30.4607
   1421.70300     -22.1184     -30.5306    1421.70300     -22.5225     -30.5772
   1421.68774     -22.1206     -30.4779    1421.68774     -22.5248     -30.5244
   1421.67249     -22.1193     -30.4614    1421.67249     -22.5234     -30.5079
   1421.65723     -21.9565     -30.4443    1421.65723     -22.3576     -30.4907
   1421.64197     -22.0973     -30.5564    1421.64197     -22.5010     -30.6030
   1421.62671     -21.9899     -30.5066    1421.62671     -22.3916     -30.5531
   1421.61145     -22.0206     -30.4387    1421.61145     -22.4229     -30.4852
   1421.59619     -22.0290     -30.3953    1421.59619     -22.4314     -30.4417
   1421.58093     -22.0036     -30.3504    1421.58093     -22.4055     -30.3967
   1421.56567     -22.0896     -30.4837    1421.56567     -22.4931     -30.5302
   1421.55042     -22.1192     -30.4972    1421.55042     -22.5233     -30.5437
   1421.53516     -22.0171     -30.3999    1421.53516     -22.4194     -30.4462
   1421.51990     -21.9969     -30.4710    1421.51990     -22.3988     -30.5174
   1421.50464     -21.9786     -30.4769    1421.50464     -22.3801     -30.5234
   1421.48938     -21.9665     -30.3498    1421.48938     -22.3678     -30.3960
   1421.47412     -21.9588     -30.4171    1421.47412     -22.3599     -30.4635
   1421.45886     -21.9402     -30.4034    1421.45886     -22.3410     -30.4497
   1421.44360     -21.9648     -30.3456    1421.44360     -22.3661     -30.3918
   1421.42834     -22.0388     -30.4413    1421.42834     -22.4414     -30.4878
   1421.41309     -22.0440     -30.4656    1421.41309     -22.4468     -30.5121
   1421.39783     -22.0291     -30.3331    1421.39783     -22.4315     -30.3793
   1421.38257     -21.8496     -30.4765    1421.38257     -22.2487     -30.5230
   1421.36731     -21.9258     -30.3463    1421.36731     -22.3264     -30.3926
   1421.35205     -21.8694     -30.3932    1421.35205     -22.2690     -30.4395
   1421.33679     -21.8719     -30.5329    1421.33679     -22.2715     -30.5795
   1421.32153     -21.8471     -30.3368    1421.32153     -22.2463     -30.3831
   1421.30627     -21.8711     -30.2970    1421.30627     -22.2706     -30.3432
   1421.29102     -21.9045     -30.3515    1421.29102     -22.3046     -30.3977
   1421.27576     -21.8409     -30.3696    1421.27576     -22.2399     -30.4159
   1421.26050     -21.8474     -30.3748    1421.26050     -22.2466     -30.4211
   1421.24524     -21.7933     -30.3398    1421.24524     -22.1915     -30.3861
   1421.22998     -21.8937     -30.3101    1421.22998     -22.2937     -30.3563
   1421.21472     -21.8442     -30.2836    1421.21472     -22.2433     -30.3298
   1421.19946     -21.8842     -30.3080    1421.19946     -22.2840     -30.3542
   1421.18420     -21.8511     -30.3633    1421.18420     -22.2503     -30.4096
   1421.16895     -21.8486     -30.3710    1421.16895     -22.2477     -30.4173
   1421.15369     -21.8184     -30.4037    1421.15369     -22.2170     -30.4500
   1421.13843     -21.7940     -30.2683    1421.13843     -22.1922     -30.3144
   1421.12317     -21.8155     -30.3161    1421.12317     -22.2140     -30.3624
   1421.10791     -21.7329     -30.3868    1421.10791     -22.1299     -30.4331
   1421.09265     -21.7139     -30.2949    1421.09265     -22.1106     -30.3411
   1421.07739     -21.7936     -30.3623    1421.07739     -22.1918     -30.4086
   1421.06213     -21.8378     -30.2799    1421.06213     -22.2367     -30.3261
   1421.04688     -21.7791     -30.3404    1421.04688     -22.1770     -30.3866
   1421.03162     -21.6693     -30.2303    1421.03162     -22.0652     -30.2764
   1421.01636     -21.6410     -30.3489    1421.01636     -22.0364     -30.3951
   1421.00110     -21.6261     -30.2755    1421.00110     -22.0212     -30.3216
   1420.98584     -21.6798     -30.2509    1420.98584     -22.0759     -30.2970
   1420.97058     -21.6822     -30.3678    1420.97058     -22.0784     -30.4141
   1420.95532     -21.6122     -30.3227    1420.95532     -22.0070     -30.3689
   1420.94006     -21.4838     -30.2114    1420.94006     -21.8763     -30.2575
   1420.92480     -21.6089     -30.0106    1420.92480     -22.0037     -30.0564
   1420.90955     -21.6142     -30.1385    1420.90955     -22.0091     -30.1844
   1420.89429     -21.5484     -29.9863    1420.89429     -21.9421     -30.0320
   1420.87903     -21.4910     -30.0619    1420.87903     -21.8837     -30.1077
   1420.86377     -21.4791     -30.0518    1420.86377     -21.8715     -30.0976
   1420.84851     -21.4470     -30.0336    1420.84851     -21.8388     -30.0794
   1420.83325     -21.3646     -30.0378    1420.83325     -21.7550     -30.0836
   1420.81799     -21.3014     -30.0897    1420.81799     -21.6906     -30.1356
   1420.80273     -21.3076     -30.1133    1420.80273     -21.6968     -30.1592
   1420.78748     -21.3201     -30.0754    1420.78748     -21.7096     -30.1213
   1420.77222     -21.3907     -30.0793    1420.77222     -21.7815     -30.1252
   1420.75696     -21.4377     -30.0612    1420.75696     -21.8293     -30.1071
   1420.74170     -21.2591     -30.0351    1420.74170     -21.6475     -30.0809
   1420.72644     -21.3384     -29.9848    1420.72644     -21.7282     -30.0305
   1420.71118     -21.2393     -29.8401    1420.71118     -21.6273     -29.8856
   1420.69592     -21.0395     -29.6870    1420.69592     -21.4239     -29.7323
   1420.68066     -20.9622     -29.7188    1420.68066     -21.3452     -29.7641
   1420.66541     -20.8163     -29.3725    1420.66541     -21.1966     -29.4172
   1420.65015     -20.5400     -29.4393    1420.65015     -20.9153     -29.4842
   1420.63489     -20.6441     -29.2967    1420.63489     -21.0212     -29.3414
   1420.61963     -20.6385     -29.3704    1420.61963     -21.0156     -29.4151
   1420.60437     -20.7226     -29.4060    1420.60437     -21.1012     -29.4509
   1420.58911     -20.6981     -29.2530    1420.58911     -21.0762     -29.2976
   1420.57385     -21.2039     -29.6027    1420.57385     -21.5913     -29.6479
   1420.55859     -21.3488     -29.9207    1420.55859     -21.7388     -29.9663
   1420.54333     -21.3232     -29.9820    1420.54333     -21.7127     -30.0278
   1420.52808     -21.1955     -29.8370    1420.52808     -21.5827     -29.8825
   1420.51282     -21.1439     -29.6735    1420.51282     -21.5301     -29.7188
   1420.49756     -21.2087     -29.7749    1420.49756     -21.5962     -29.8203
   1420.48230     -21.8024     -30.2347    1420.48230     -22.2008     -30.2808
   1420.46704     -21.7370     -29.9990    1420.46704     -22.1341     -30.0448
   1420.45178     -20.8929     -29.1572    1420.45178     -21.2746     -29.2017
   1420.43652     -19.8793     -28.1455    1420.43652     -20.2425     -28.1885
   1420.42126     -16.0572     -24.5273    1420.42126     -16.3506     -24.5647
   1420.40601     -13.2737     -21.8938    1420.40601     -13.5162     -21.9272
   1420.39075     -17.7143     -26.0280    1420.39075     -18.0380     -26.0677
   1420.37549     -19.0124     -27.3928    1420.37549     -19.3598     -27.4346
   1420.36023     -19.5122     -28.3527    1420.36023     -19.8686     -28.3959
   1420.34497     -20.5317     -29.2270    1420.34497     -20.9068     -29.2716
   1420.32971     -20.8983     -29.6564    1420.32971     -21.2801     -29.7017
   1420.31445     -21.0742     -29.9276    1420.31445     -21.4592     -29.9732
   1420.29919     -21.1376     -30.0295    1420.29919     -21.5238     -30.0753
   1420.28394     -21.1913     -30.1042    1420.28394     -21.5785     -30.1501
   1420.26868     -21.1838     -29.9872    1420.26868     -21.5708     -30.0329
   1420.25342     -21.2428     -30.0103    1420.25342     -21.6309     -30.0560
   1420.23816     -21.1609     -30.0487    1420.23816     -21.5475     -30.0946
   1420.22290     -21.1904     -29.9207    1420.22290     -21.5775     -29.9663
   1420.20764     -21.2801     -30.0042    1420.20764     -21.6689     -30.0499
   1420.19238     -21.2614     -30.0176    1420.19238     -21.6499     -30.0634
   1420.17712     -21.2733     -30.1235    1420.17712     -21.6620     -30.1694
   1420.16187     -21.3270     -30.2224    1420.16187     -21.7166     -30.2684
   1420.14661     -21.3193     -30.2165    1420.14661     -21.7088     -30.2626
   1420.13135     -21.3659     -30.2371    1420.13135     -21.7562     -30.2832
   1420.11609     -21.1807     -30.2451    1420.11609     -21.5677     -30.2912
   1420.10083     -21.2282     -30.1029    1420.10083     -21.6160     -30.1488
   1420.08557     -21.1726     -30.0233    1420.08557     -21.5594     -30.0691
   1420.07031     -21.2568     -30.1757    1420.07031     -21.6451     -30.2217
   1420.05505     -21.2804     -30.2256    1420.05505     -21.6692     -30.2717
   1420.03979     -21.2896     -30.2151    1420.03979     -21.6786     -30.2612
   1420.02454     -21.2513     -30.2312    1420.02454     -21.6396     -30.2773
   1420.00928     -21.2175     -30.2252    1420.00928     -21.6051     -30.2713
   1419.99402     -21.3190     -30.1767    1419.99402     -21.7085     -30.2227
   1419.97876     -21.2472     -30.2236    1419.97876     -21.6354     -30.2697
   1419.96350     -21.1675     -30.2534    1419.96350     -21.5542     -30.2996
   1419.94824     -21.3809     -30.1681    1419.94824     -21.7715     -30.2141
   1419.93298     -21.2626     -30.2400    1419.93298     -21.6511     -30.2861
   1419.91772     -21.2131     -30.1480    1419.91772     -21.6007     -30.1939
   1419.90247     -21.2322     -30.1505    1419.90247     -21.6201     -30.1964
   1419.88721     -21.3452     -30.1248    1419.88721     -21.7352     -30.1708
   1419.87195     -21.2789     -30.1593    1419.87195     -21.6677     -30.2053
   1419.85669     -21.2314     -30.1559    1419.85669     -21.6193     -30.2019
   1419.84143     -21.2832     -30.1579    1419.84143     -21.6720     -30.2039
   1419.82617     -21.1933     -30.1963    1419.82617     -21.5805     -30.2424
   1419.81091     -21.1915     -30.1401    1419.81091     -21.5787     -30.1861
   1419.79565     -21.3458     -30.1994    1419.79565     -21.7358     -30.2455
   1419.78040     -21.2736     -30.2297    1419.78040     -21.6622     -30.2758
   1419.76514     -21.2002     -30.2157    1419.76514     -21.5875     -30.2618
   1419.74988     -21.1798     -30.1359    1419.74988     -21.5667     -30.1819
   1419.73462     -21.1938     -30.0951    1419.73462     -21.5810     -30.1410
   1419.71936     -21.1953     -30.1915    1419.71936     -21.5826     -30.2375
   1419.70410     -21.2153     -30.1879    1419.70410     -21.6029     -30.2340
   1419.68884     -21.2121     -30.2336    1419.68884     -21.5996     -30.2797
   1419.67358     -21.2703     -30.2196    1419.67358     -21.6589     -30.2657
   1419.65833     -21.1382     -30.1742    1419.65833     -21.5244     -30.2203
   1419.64307     -21.1963     -30.0977    1419.64307     -21.5836     -30.1436
   1419.62781     -21.1316     -30.1700    1419.62781     -21.5177     -30.2160
   1419.61255     -21.0921     -30.1826    1419.61255     -21.4774     -30.2286
   1419.59729     -21.1332     -30.0650    1419.59729     -21.5193     -30.1109
   1419.58203     -21.1605     -30.1092    1419.58203     -21.5471     -30.1551
   1419.56677     -21.1224     -30.2202    1419.56677     -21.5083     -30.2662
   1419.55151     -21.1743     -30.0447    1419.55151     -21.5612     -30.0906
   1419.53625     -21.1458     -30.2385    1419.53625     -21.5321     -30.2846
   1419.52100     -21.1610     -30.2266    1419.52100     -21.5476     -30.2727
   1419.50574     -21.1922     -30.1922    1419.50574     -21.5794     -30.2382
   1419.49048     -21.1531     -30.1226    1419.49048     -21.5396     -30.1686
   1419.47522     -21.1466     -30.0732    1419.47522     -21.5329     -30.1190
   1419.45996     -21.1200     -30.2528    1419.45996     -21.5059     -30.2989
   1419.44470     -21.1919     -30.1686    1419.44470     -21.5791     -30.2146
   1419.42944     -21.2015     -30.1441    1419.42944     -21.5889     -30.1901
   1419.41418     -21.2159     -30.0678    1419.41418     -21.6035     -30.1136
   1419.39893     -21.2732     -30.0843    1419.39893     -21.6619     -30.1302
   1419.38367     -21.1534     -30.1937    1419.38367     -21.5399     -30.2397
   1419.36841     -21.2198     -30.0387    1419.36841     -21.6075     -30.0845
   1419.35315     -21.1907     -30.1610    1419.35315     -21.5778     -30.2069
   1419.33789     -21.1701     -30.0899    1419.33789     -21.5569     -30.1358
   1419.32263     -21.1506     -30.1183    1419.32263     -21.5370     -30.1642
   1419.30737     -21.1175     -30.1281    1419.30737     -21.5033     -30.1741
   1419.29211     -21.1557     -30.2705    1419.29211     -21.5422     -30.3167
   1419.27686     -21.1303     -30.0685    1419.27686     -21.5164     -30.1144
   1419.26160     -21.0762     -30.1937    1419.26160     -21.4613     -30.2398
   1419.24634     -21.0647     -30.2958    1419.24634     -21.4496     -30.3420
   1419.23108     -21.0730     -30.2194    1419.23108     -21.4580     -30.2655
   1419.21582     -21.0566     -30.1723    1419.21582     -21.4413     -30.2183
   1419.20056     -21.0668     -30.0997    1419.20056     -21.4517     -30.1456
   1419.18530     -21.0281     -30.0748    1419.18530     -21.4122     -30.1206
   1419.17004     -21.0541     -30.3214    1419.17004     -21.4388     -30.3676
   1419.15479     -21.0783     -30.1015    1419.15479     -21.4634     -30.1474
   1419.13953     -21.0514     -30.1268    1419.13953     -21.4360     -30.1728
   1419.12427     -21.0520     -30.1461    1419.12427     -21.4366     -30.1920
   1419.10901     -21.1209     -30.1532    1419.10901     -21.5068     -30.1992
   1419.09375     -21.0149     -30.0242    1419.09375     -21.3988     -30.0700
   1419.07849     -21.1388     -30.2120    1419.07849     -21.5250     -30.2581
   1419.06323     -21.0336     -30.2371    1419.06323     -21.4178     -30.2832
   1419.04797     -21.0087     -30.0269    1419.04797     -21.3925     -30.0726
   1419.03271     -21.0802     -30.0389    1419.03271     -21.4654     -30.0847
   1419.01746     -21.0292     -30.1062    1419.01746     -21.4134     -30.1521
   1419.00220     -21.0813     -30.1345    1419.00220     -21.4664     -30.1805
   1418.98694     -21.1108     -30.0702    1418.98694     -21.4964     -30.1161
   1418.97168     -20.9750     -30.1739    1418.97168     -21.3582     -30.2200
   1418.95642     -21.0532     -30.1539    1418.95642     -21.4378     -30.1999
   1418.94116     -21.0490     -30.1894    1418.94116     -21.4335     -30.2355
   1418.92590     -21.1092     -30.1576    1418.92590     -21.4949     -30.2036
   1418.91064     -21.0735     -30.2535    1418.91064     -21.4585     -30.2996
   1418.89539     -21.1128     -30.1427    1418.89539     -21.4986     -30.1887
   1418.88013     -21.1147     -30.1499    1418.88013     -21.5005     -30.1959
   1418.86487     -21.0682     -30.1147    1418.86487     -21.4531     -30.1606
   1418.84961     -21.0252     -30.2142    1418.84961     -21.4093     -30.2602
   1418.83435     -21.0450     -30.0599    1418.83435     -21.4295     -30.1058
   1418.81909     -21.0695     -30.2130    1418.81909     -21.4545     -30.2590
   1418.80383     -21.1046     -30.0548    1418.80383     -21.4902     -30.1006
   1418.78857     -21.2007     -30.1919    1418.78857     -21.5880     -30.2379
   1418.77332     -20.9889     -30.3123    1418.77332     -21.3724     -30.3585
   1418.75806     -21.0789     -30.2453    1418.75806     -21.4640     -30.2914
   1418.74280     -21.0324     -30.1976    1418.74280     -21.4166     -30.2437
   1418.72754     -20.9873     -30.2305    1418.72754     -21.3707     -30.2766
   1418.71228     -21.1380     -30.1626    1418.71228     -21.5242     -30.2086
   1418.69702     -21.1023     -30.2321    1418.69702     -21.4879     -30.2782
   1418.68176     -21.0416     -30.1102    1418.68176     -21.4260     -30.1561
   1418.66650     -21.0600     -30.1001    1418.66650     -21.4447     -30.1460
   1418.65125     -21.0137     -30.2169    1418.65125     -21.3976     -30.2629
   1418.63599     -21.1285     -30.2449    1418.63599     -21.5145     -30.2910
   1418.62073     -20.9954     -30.2135    1418.62073     -21.3789     -30.2596
   1418.60547     -21.0694     -30.1905    1418.60547     -21.4543     -30.2365
   1418.59021     -21.0797     -30.1331    1418.59021     -21.4648     -30.1791
   1418.57495     -21.0832     -30.2046    1418.57495     -21.4684     -30.2506
   1418.55969     -21.0137     -30.2987    1418.55969     -21.3976     -30.3449
   1418.54443     -21.1541     -30.2566    1418.54443     -21.5406     -30.3027
   1418.52917     -21.0036     -30.2494    1418.52917     -21.3874     -30.2955
   1418.51392     -21.1144     -30.1546    1418.51392     -21.5001     -30.2006
   1418.49866     -21.0146     -30.1399    1418.49866     -21.3985     -30.1858
   1418.48340     -21.0694     -30.0634    1418.48340     -21.4544     -30.1092
   1418.46814     -21.0504     -30.1289    1418.46814     -21.4350     -30.1748
   1418.45288     -21.0111     -30.1504    1418.45288     -21.3950     -30.1964
   1418.43762     -21.0650     -30.2112    1418.43762     -21.4499     -30.2573
   1418.42236     -21.1459     -30.1544    1418.42236     -21.5323     -30.2003
   1418.40710     -21.1493     -30.3141    1418.40710     -21.5357     -30.3603
   1418.39185     -21.0261     -30.1938    1418.39185     -21.4102     -30.2398
   1418.37659     -20.9846     -30.3697    1418.37659     -21.3680     -30.4161
   1418.36133     -21.1147     -30.1796    1418.36133     -21.5005     -30.2256
   1418.34607     -21.0977     -30.2147    1418.34607     -21.4832     -30.2607
   1418.33081     -21.0586     -30.1587    1418.33081     -21.4433     -30.2047
   1418.31555     -21.0729     -30.1451    1418.31555     -21.4578     -30.1911
   1418.30029     -21.0799     -30.2278    1418.30029     -21.4650     -30.2739
   1418.28503     -21.0543     -30.1307    1418.28503     -21.4389     -30.1767
   1418.26978     -21.1087     -30.2625    1418.26978     -21.4944     -30.3087
   1418.25452     -21.0890     -30.1687    1418.25452     -21.4743     -30.2147
   1418.23926     -21.0212     -30.1750    1418.23926     -21.4052     -30.2210
   1418.22400     -20.9894     -30.1927    1418.22400     -21.3729     -30.2387
   1418.20874     -21.0125     -30.1321    1418.20874     -21.3964     -30.1780
   1418.19348     -21.1436     -30.3138    1418.19348     -21.5299     -30.3600
   1418.17822     -20.9688     -30.2593    1418.17822     -21.3519     -30.3054
   1418.16296     -21.0579     -30.1659    1418.16296     -21.4426     -30.2119
   1418.14771     -21.0733     -30.2238    1418.14771     -21.4583     -30.2699
   1418.13245     -21.0348     -30.2533    1418.13245     -21.4191     -30.2995
   1418.11719     -21.2527     -30.1942    1418.11719     -21.6410     -30.2402
   1418.10193     -21.0457     -30.2943    1418.10193     -21.4302     -30.3405
   1418.08667     -21.1345     -30.1973    1418.08667     -21.5207     -30.2433
   1418.07141     -21.0901     -30.2142    1418.07141     -21.4754     -30.2603
   1418.05615     -21.2204     -30.2262    1418.05615     -21.6081     -30.2722
   1418.04089     -20.9316     -30.2399    1418.04089     -21.3140     -30.2860
   1418.02563     -20.9121     -30.2440    1418.02563     -21.2942     -30.2901
   1418.01038     -21.0720     -30.3310    1418.01038     -21.4570     -30.3773
   1417.99512     -21.0963     -30.2557    1417.99512     -21.4817     -30.3019
   1417.97986     -21.0427     -30.3011    1417.97986     -21.4271     -30.3473
   1417.96460     -21.0988     -30.2845    1417.96460     -21.4843     -30.3307
   1417.94934     -21.1748     -30.2746    1417.94934     -21.5617     -30.3208
   1417.93408     -21.0507     -30.2545    1417.93408     -21.4353     -30.3006
   1417.91882     -21.0439     -30.1789    1417.91882     -21.4283     -30.2249
   1417.90356     -21.0980     -30.2624    1417.90356     -21.4834     -30.3086
   1417.88831     -21.1626     -30.2285    1417.88831     -21.5492     -30.2746
   1417.87305     -21.1296     -30.3524    1417.87305     -21.5156     -30.3987
   1417.85779     -21.1063     -30.3753    1417.85779     -21.4919     -30.4216
   1417.84253     -21.1369     -30.2970    1417.84253     -21.5231     -30.3432
   1417.82727     -21.1123     -30.3033    1417.82727     -21.4980     -30.3496
   1417.81201     -21.1047     -30.2712    1417.81201     -21.4903     -30.3173
   1417.79675     -21.1280     -30.3599    1417.79675     -21.5140     -30.4061
   1417.78149     -21.1127     -30.2956    1417.78149     -21.4984     -30.3418
   1417.76624     -21.0725     -30.3622    1417.76624     -21.4575     -30.4085
   1417.75098     -21.2322     -30.3505    1417.75098     -21.6201     -30.3968
   1417.73572     -21.1662     -30.2990    1417.73572     -21.5529     -30.3452
   1417.72046     -21.2373     -30.3329    1417.72046     -21.6253     -30.3792
   1417.70520     -21.0118     -30.3306    1417.70520     -21.3957     -30.3769
   1417.68994     -21.0867     -30.3713    1417.68994     -21.4719     -30.4177
   1417.67468     -21.1608     -30.3212    1417.67468     -21.5474     -30.3674
   1417.65942     -21.0662     -30.4223    1417.65942     -21.4511     -30.4687
   1417.64417     -20.9613     -30.3296    1417.64417     -21.3443     -30.3759
   1417.62891     -21.1119     -30.4553    1417.62891     -21.4976     -30.5017
   1417.61365     -21.1817     -30.4291    1417.61365     -21.5687     -30.4755
   1417.59839     -20.9880     -30.3849    1417.59839     -21.3714     -30.4312
   1417.58313     -21.0976     -30.4034    1417.58313     -21.4831     -30.4498
   1417.56787     -21.0868     -30.3838    1417.56787     -21.4720     -30.4302
   1417.55261     -21.0758     -30.3241    1417.55261     -21.4609     -30.3703
   1417.53735     -21.0771     -30.4358    1417.53735     -21.4622     -30.4822
   1417.52209     -21.0980     -30.5227    1417.52209     -21.4834     -30.5692
   1417.50684     -21.1456     -30.5271    1417.50684     -21.5319     -30.5736
   1417.49158     -21.1504     -30.4099    1417.49158     -21.5368     -30.4563
   1417.47632     -21.0222     -30.5156    1417.47632     -21.4063     -30.5622
   1417.46106     -21.2149     -30.4391    1417.46106     -21.6025     -30.4855
   1417.44580     -21.2028     -30.4842    1417.44580     -21.5902     -30.5307
   1417.43054     -21.1118     -30.3995    1417.43054     -21.4975     -30.4458
   1417.41528     -21.1258     -30.3691    1417.41528     -21.5118     -30.4154
   1417.40002     -21.1681     -30.4690    1417.40002     -21.5548     -30.5155
   1417.38477     -21.2096     -30.4545    1417.38477     -21.5971     -30.5010
   1417.36951     -21.2677     -30.4468    1417.36951     -21.6562     -30.4932
   1417.35425     -21.2200     -30.4477    1417.35425     -21.6077     -30.4941
   1417.33899     -21.2642     -30.4050    1417.33899     -21.6527     -30.4514
   1417.32373     -21.1394     -30.3943    1417.32373     -21.5256     -30.4406
   1417.30847     -21.2182     -30.4550    1417.30847     -21.6059     -30.5014
   1417.29321     -21.1510     -30.4136    1417.29321     -21.5375     -30.4600
   1417.27795     -21.1212     -30.3087    1417.27795     -21.5070     -30.3549
   1417.26270     -21.1057     -30.4288    1417.26270     -21.4913     -30.4752
   1417.24744     -21.2297     -30.4246    1417.24744     -21.6176     -30.4710
   1417.23218     -21.1618     -30.4988    1417.23218     -21.5484     -30.5453
   1417.21692     -21.3238     -30.4607    1417.21692     -21.7134     -30.5072
   1417.20166     -21.2844     -30.5522    1417.20166     -21.6732     -30.5988
   1417.18640     -21.1784     -30.4412    1417.18640     -21.5653     -30.4876
   1417.17114     -21.2326     -30.5002    1417.17114     -21.6205     -30.5467
   1417.15588     -21.2697     -30.5028    1417.15588     -21.6583     -30.5493
   1417.14062     -21.2227     -30.4813    1417.14062     -21.6105     -30.5278
   1417.12537     -21.3410     -30.5570    1417.12537     -21.7309     -30.6036
   1417.11011     -21.2461     -30.5725    1417.11011     -21.6342     -30.6191
   1417.09485     -21.2969     -30.4997    1417.09485     -21.6860     -30.5462
   1417.07959     -21.2454     -30.5423    1417.07959     -21.6336     -30.5888
   1417.06433     -21.3638     -30.4890    1417.06433     -21.7541     -30.5355
   1417.04907     -21.3963     -30.5328    1417.04907     -21.7872     -30.5794
   1417.03381     -21.3508     -30.6640    1417.03381     -21.7408     -30.7108
   1417.01855     -21.4394     -30.5836    1417.01855     -21.8311     -30.6303
   1417.00330     -21.3277     -30.4919    1417.00330     -21.7173     -30.5384
   1416.98804     -21.2550     -30.6583    1416.98804     -21.6433     -30.7050
   1416.97278     -21.2580     -30.6187    1416.97278     -21.6464     -30.6654
   1416.95752     -21.3198     -30.5560    1416.95752     -21.7093     -30.6026
   1416.94226     -21.2967     -30.5918    1416.94226     -21.6858     -30.6385
   1416.92700     -21.4553     -30.6440    1416.92700     -21.8473     -30.6907
   1416.91174     -21.2524     -30.6705    1416.91174     -21.6407     -30.7172
   1416.89648     -21.3968     -30.4700    1416.89648     -21.7877     -30.5165
   1416.88123     -21.4261     -30.5645    1416.88123     -21.8176     -30.6111
   1416.86597     -21.2412     -30.5467    1416.86597     -21.6292     -30.5933
   1416.85071     -21.3018     -30.6591    1416.85071     -21.6910     -30.7058
   1416.83545     -21.3035     -30.6208    1416.83545     -21.6927     -30.6675
   1416.82019     -21.3471     -30.6850    1416.82019     -21.7371     -30.7318
   1416.80493     -21.3234     -30.6523    1416.80493     -21.7130     -30.6991
   1416.78967     -21.3164     -30.6703    1416.78967     -21.7058     -30.7171
   1416.77441     -21.3797     -30.7411    1416.77441     -21.7703     -30.7880
   1416.75916     -21.4703     -30.6989    1416.75916     -21.8625     -30.7457
   1416.74390     -21.4690     -30.4884    1416.74390     -21.8612     -30.5349
   1416.72864     -21.3939     -30.6197    1416.72864     -21.7848     -30.6664
   1416.71338     -21.3883     -30.5378    1416.71338     -21.7791     -30.5844
   1416.69812     -21.4616     -30.6329    1416.69812     -21.8537     -30.6796
   1416.68286     -21.5368     -30.6409    1416.68286     -21.9303     -30.6876
   1416.66760     -21.5125     -30.6353    1416.66760     -21.9055     -30.6820
   1416.65234     -21.4958     -30.7822    1416.65234     -21.8885     -30.8292
   1416.63708     -21.5037     -30.7979    1416.63708     -21.8965     -30.8449
   1416.62183     -21.5195     -30.6519    1416.62183     -21.9127     -30.6986
   1416.60657     -21.4960     -30.7022    1416.60657     -21.8888     -30.7490
   1416.59131     -21.5735     -30.7496    1416.59131     -21.9676     -30.7965
   1416.57605     -21.4179     -30.6712    1416.57605     -21.8092     -30.7180
   1416.56079     -21.4060     -30.7245    1416.56079     -21.7970     -30.7713
   1416.54553     -21.5185     -30.6573    1416.54553     -21.9116     -30.7040
   1416.53027     -21.5746     -30.6655    1416.53027     -21.9687     -30.7123
   1416.51501     -21.4487     -30.6950    1416.51501     -21.8406     -30.7418
   1416.49976     -21.5666     -30.6997    1416.49976     -21.9607     -30.7465
   1416.48450     -21.6097     -30.6388    1416.48450     -22.0045     -30.6855
   1416.46924     -21.5761     -30.7918    1416.46924     -21.9703     -30.8387
   1416.45398     -21.7405     -30.8864    1416.45398     -22.1377     -30.9335
   1416.43872     -21.5887     -30.7358    1416.43872     -21.9831     -30.7827
   1416.42346     -21.5274     -30.6335    1416.42346     -21.9207     -30.6802
   1416.40820     -21.6341     -30.7982    1416.40820     -22.0294     -30.8451
   1416.39294     -21.6035     -30.8181    1416.39294     -21.9982     -30.8651
   1416.37769     -21.6920     -30.8479    1416.37769     -22.0883     -30.8949
   1416.36243     -21.7453     -30.8219    1416.36243     -22.1426     -30.8689
   1416.34717     -21.5489     -30.7553    1416.34717     -21.9426     -30.8022
   1416.33191     -21.5153     -30.7493    1416.33191     -21.9084     -30.7962
   1416.31665     -21.7091     -30.6597    1416.31665     -22.1057     -30.7064
   1416.30139     -21.7010     -30.6724    1416.30139     -22.0975     -30.7191
   1416.28613     -21.6002     -30.7632    1416.28613     -21.9948     -30.8101
   1416.27087     -21.7569     -30.7701    1416.27087     -22.1544     -30.8171
   1416.25562     -21.7576     -30.8006    1416.25562     -22.1551     -30.8475
   1416.24036     -21.7136     -30.8045    1416.24036     -22.1103     -30.8515
   1416.22510     -21.6750     -30.7410    1416.22510     -22.0710     -30.7878
   1416.20984     -21.7923     -30.7969    1416.20984     -22.1904     -30.8439
   1416.19458     -21.6985     -30.7633    1416.19458     -22.0949     -30.8102
   1416.17932     -21.7275     -30.8438    1416.17932     -22.1245     -30.8909
   1416.16406     -21.7354     -30.7858    1416.16406     -22.1325     -30.8328
   1416.14880     -21.7765     -30.9138    1416.14880     -22.1744     -30.9610
   1416.13354     -21.8317     -30.7661    1416.13354     -22.2305     -30.8130
   1416.11829     -21.8026     -30.7726    1416.11829     -22.2009     -30.8195
   1416.10303     -21.7262     -30.8269    1416.10303     -22.1231     -30.8739
   1416.08777     -21.9574     -30.8302    1416.08777     -22.3585     -30.8772
   1416.07251     -21.8930     -30.8438    1416.07251     -22.2930     -30.8908
   1416.05725     -21.9612     -30.7831    1416.05725     -22.3624     -30.8301
   1416.04199     -21.7982     -30.8240    1416.04199     -22.1964     -30.8710
   1416.02673     -21.9631     -30.8902    1416.02673     -22.3644     -30.9373
   1416.01147     -21.8689     -30.8954    1416.01147     -22.2684     -30.9425
   1415.99622     -21.8604     -30.8464    1415.99622     -22.2597     -30.8934
