#     FILENAME=Skynet_59284_M31_10kpc_JWei_52425_1409.A.onoff.cal.txt
#     BASENAME=Skynet_59284_M31_10kpc_JWei_52425_1409
#      CONTROL=SKYNET
#     PROJCODE=Skynet_59284_M31_10kpc_JWei_52425
#     DATAROOT=/raid/scratch/cyborg/SkynetData
#      DATADIR=/raid/scratch/cyborg
#     DATADIR2=/raid/scratch/cyborg/SkynetData/Skynet_59284_M31_10kpc_JWei_524
#     SCANNAME=2019_06_26_10
#     SRC_NAME=M31_10kpc_JWei
#     OBSERVER=unioncollege_21317
#     DATE_OBS=2021-03-11T12:48:16.260
#        OBSID=52425
#      SCANNUM=1409
#          MJD=59284.5335215
#          UTC=46096
#     SCANTYPE=onoff
#     DATAMODE=HIRES
#     RECEIVER=Rx1_2
#      OBSFREQ=1395.0000
# Actual_FREQ1=1420.4000,
# Actual_FREQ2=1420.4000
#    LO1Tuning=6870.4000
#     RFFILTER=1355_1435
#        OBSBW=-15.6250
#     EFFBANDW=15.6250
#        NCHAN=1024
#    STARTCHAN=51
#     STOPCHAN=972
#         TINT=0.3000
#         TBIN=0.00419430
#       ACCLEN=2048 
#     DURATION=168.60
#     EXPOSURE=125.08
#        FOCUS=37.071
#       RA,DEC=00:40:37.47, 40:42:02.64
#      RA(deg)=8.77026
#     DEC(deg)=40.70096
#   WIDTH(deg)=2.0938x0.0261
#    AZIM(deg)=56.6482
#    ELEV(deg)=25.7771
#     COORDREF=RA_DEC_
#         HREF=10.0879
#         VREF=40.7011
#      RADESYS=FK5
#       OFFSYS=RADEC
#      EQUINOX=2000.00
#     IFATTENS=20.00, 14.00
#   BALANCELEV=1.200 
#   POWER_XLYR=[2.36, 1.29] 
#       VELDEF=RADI-OBS 
#     VELOCITY=0.000 
#         NPOL=2 
#      POLMODE=Linear 
#      POLTYPE=XXYY 
#      WARNING=None 
#     NOISECAL=HI 
#       PRECAL=2 
#      POSTCAL=2 
#     CRYOTEMP=15 
#      BOXTEMP=26 
#         TSYS=XX1:33.12, YY1:40.53
#         TSYS=XX2:33.12, YY2:40.52
#         TCAL=XX1:9.17, YY1:10.07
#         TCAL=XX2:9.17, YY2:10.07
# Calibrated spectra: Tsys*(ON-OFF)/OFF 
#                
#                
#Freq1(MHz)         XX1          YY1   Freq2(MHz)       XX2         YY2 
   1427.43430       0.7020       0.7804    1427.43430       0.7019       0.7802
   1427.41904       0.7106       0.7570    1427.41904       0.7106       0.7569
   1427.40378       0.6952       0.8739    1427.40378       0.6952       0.8737
   1427.38853       0.7214       0.8212    1427.38853       0.7213       0.8211
   1427.37327       0.7081       0.7421    1427.37327       0.7081       0.7419
   1427.35801       0.7537       0.7872    1427.35801       0.7537       0.7871
   1427.34275       0.7121       0.7151    1427.34275       0.7120       0.7149
   1427.32749       0.6878       0.6681    1427.32749       0.6877       0.6680
   1427.31223       0.6615       0.9013    1427.31223       0.6615       0.9011
   1427.29697       0.6800       0.8684    1427.29697       0.6800       0.8682
   1427.28171       0.7328       0.7451    1427.28171       0.7328       0.7450
   1427.26646       0.7192       0.7493    1427.26646       0.7192       0.7492
   1427.25120       0.6994       0.7003    1427.25120       0.6993       0.7002
   1427.23594       0.6533       0.7864    1427.23594       0.6533       0.7863
   1427.22068       0.7226       0.7181    1427.22068       0.7226       0.7180
   1427.20542       0.6534       0.7637    1427.20542       0.6534       0.7636
   1427.19016       0.7300       0.8273    1427.19016       0.7299       0.8271
   1427.17490       0.6532       0.8264    1427.17490       0.6532       0.8263
   1427.15964       0.7093       0.7529    1427.15964       0.7093       0.7528
   1427.14438       0.6590       0.7032    1427.14438       0.6590       0.7030
   1427.12913       0.7315       0.7098    1427.12913       0.7314       0.7097
   1427.11387       0.6128       0.8162    1427.11387       0.6128       0.8160
   1427.09861       0.5501       0.7870    1427.09861       0.5501       0.7869
   1427.08335       0.6556       0.8387    1427.08335       0.6556       0.8385
   1427.06809       0.7015       0.8298    1427.06809       0.7015       0.8296
   1427.05283       0.7097       0.8235    1427.05283       0.7097       0.8233
   1427.03757       0.7021       0.8474    1427.03757       0.7021       0.8473
   1427.02231       0.6394       0.8328    1427.02231       0.6394       0.8326
   1427.00706       0.6665       0.8041    1427.00706       0.6665       0.8040
   1426.99180       0.7559       0.8243    1426.99180       0.7559       0.8242
   1426.97654       0.6389       0.8825    1426.97654       0.6389       0.8823
   1426.96128       0.7500       0.7509    1426.96128       0.7500       0.7507
   1426.94602       0.6413       0.8410    1426.94602       0.6413       0.8409
   1426.93076       0.6447       0.8248    1426.93076       0.6447       0.8246
   1426.91550       0.7397       0.8407    1426.91550       0.7397       0.8405
   1426.90024       0.6152       0.8389    1426.90024       0.6152       0.8387
   1426.88499       0.6343       0.8146    1426.88499       0.6343       0.8145
   1426.86973       0.7098       0.8069    1426.86973       0.7098       0.8068
   1426.85447       0.6909       0.7781    1426.85447       0.6909       0.7780
   1426.83921       0.6906       0.9054    1426.83921       0.6906       0.9052
   1426.82395       0.7286       0.8536    1426.82395       0.7286       0.8534
   1426.80869       0.5783       0.8208    1426.80869       0.5782       0.8207
   1426.79343       0.6646       0.8345    1426.79343       0.6646       0.8343
   1426.77817       0.6972       0.8491    1426.77817       0.6971       0.8489
   1426.76292       0.7209       0.8503    1426.76292       0.7209       0.8501
   1426.74766       0.6811       0.9155    1426.74766       0.6810       0.9154
   1426.73240       0.6746       0.8703    1426.73240       0.6746       0.8702
   1426.71714       0.6113       0.7946    1426.71714       0.6113       0.7944
   1426.70188       0.6055       0.8124    1426.70188       0.6055       0.8123
   1426.68662       0.6994       0.7855    1426.68662       0.6993       0.7854
   1426.67136       0.5849       0.9076    1426.67136       0.5849       0.9074
   1426.65610       0.7546       0.9101    1426.65610       0.7546       0.9099
   1426.64084       0.6088       0.9039    1426.64084       0.6087       0.9037
   1426.62559       0.5649       0.7113    1426.62559       0.5649       0.7112
   1426.61033       0.6819       0.8405    1426.61033       0.6819       0.8404
   1426.59507       0.7141       0.8185    1426.59507       0.7141       0.8184
   1426.57981       0.7295       0.9093    1426.57981       0.7295       0.9091
   1426.56455       0.7145       0.8770    1426.56455       0.7145       0.8768
   1426.54929       0.6888       0.8001    1426.54929       0.6888       0.8000
   1426.53403       0.7042       0.7477    1426.53403       0.7042       0.7475
   1426.51877       0.6774       0.8188    1426.51877       0.6774       0.8186
   1426.50352       0.7483       0.7178    1426.50352       0.7483       0.7177
   1426.48826       0.7198       0.8256    1426.48826       0.7198       0.8255
   1426.47300       0.7003       0.7988    1426.47300       0.7003       0.7986
   1426.45774       0.7226       0.8375    1426.45774       0.7226       0.8374
   1426.44248       0.6860       0.8067    1426.44248       0.6860       0.8066
   1426.42722       0.6835       0.7304    1426.42722       0.6835       0.7303
   1426.41196       0.7106       0.9143    1426.41196       0.7106       0.9141
   1426.39670       0.7477       0.8437    1426.39670       0.7476       0.8436
   1426.38145       0.6564       0.8034    1426.38145       0.6564       0.8032
   1426.36619       0.6713       0.8729    1426.36619       0.6713       0.8727
   1426.35093       0.6945       0.8917    1426.35093       0.6944       0.8915
   1426.33567       0.6262       0.8582    1426.33567       0.6261       0.8580
   1426.32041       0.6145       0.7590    1426.32041       0.6145       0.7589
   1426.30515       0.7745       0.8553    1426.30515       0.7745       0.8551
   1426.28989       0.6461       0.8798    1426.28989       0.6461       0.8796
   1426.27463       0.7082       0.8926    1426.27463       0.7082       0.8925
   1426.25937       0.7542       0.9500    1426.25937       0.7542       0.9498
   1426.24412       0.7276       0.8889    1426.24412       0.7275       0.8887
   1426.22886       0.6570       0.8241    1426.22886       0.6570       0.8239
   1426.21360       0.7833       0.7915    1426.21360       0.7833       0.7913
   1426.19834       0.7832       0.7814    1426.19834       0.7832       0.7812
   1426.18308       0.7103       0.8201    1426.18308       0.7103       0.8199
   1426.16782       0.6991       0.8145    1426.16782       0.6991       0.8143
   1426.15256       0.7004       0.8492    1426.15256       0.7003       0.8491
   1426.13730       0.6632       0.7048    1426.13730       0.6632       0.7047
   1426.12205       0.7629       0.8500    1426.12205       0.7629       0.8498
   1426.10679       0.6976       0.7032    1426.10679       0.6976       0.7030
   1426.09153       0.7073       0.7992    1426.09153       0.7073       0.7990
   1426.07627       0.6758       0.7721    1426.07627       0.6758       0.7719
   1426.06101       0.7112       0.7712    1426.06101       0.7111       0.7711
   1426.04575       0.7262       0.8011    1426.04575       0.7262       0.8010
   1426.03049       0.6846       0.9039    1426.03049       0.6846       0.9037
   1426.01523       0.7455       0.6703    1426.01523       0.7454       0.6701
   1425.99998       0.8191       0.7844    1425.99998       0.8191       0.7843
   1425.98472       0.7934       0.8296    1425.98472       0.7934       0.8295
   1425.96946       0.8118       0.9088    1425.96946       0.8118       0.9086
   1425.95420       0.6978       0.7585    1425.95420       0.6978       0.7584
   1425.93894       0.7493       0.7913    1425.93894       0.7493       0.7911
   1425.92368       0.6886       0.8423    1425.92368       0.6886       0.8421
   1425.90842       0.6843       0.8062    1425.90842       0.6842       0.8060
   1425.89316       0.7763       0.7751    1425.89316       0.7763       0.7750
   1425.87791       0.7203       0.7580    1425.87791       0.7203       0.7579
   1425.86265       0.7310       0.8528    1425.86265       0.7310       0.8526
   1425.84739       0.6707       0.7757    1425.84739       0.6707       0.7756
   1425.83213       0.6974       0.7773    1425.83213       0.6973       0.7772
   1425.81687       0.6009       0.6840    1425.81687       0.6009       0.6839
   1425.80161       0.6734       0.7223    1425.80161       0.6734       0.7221
   1425.78635       0.7411       0.7362    1425.78635       0.7411       0.7361
   1425.77109       0.7764       0.7749    1425.77109       0.7764       0.7747
   1425.75583       0.7910       0.8091    1425.75583       0.7910       0.8090
   1425.74058       0.7134       0.7414    1425.74058       0.7134       0.7412
   1425.72532       0.7677       0.7653    1425.72532       0.7677       0.7652
   1425.71006       0.8227       0.7785    1425.71006       0.8227       0.7783
   1425.69480       0.6549       0.7143    1425.69480       0.6549       0.7142
   1425.67954       0.7347       0.7994    1425.67954       0.7346       0.7992
   1425.66428       0.6782       0.7110    1425.66428       0.6781       0.7109
   1425.64902       0.6929       0.6673    1425.64902       0.6929       0.6671
   1425.63376       0.7864       0.7238    1425.63376       0.7863       0.7237
   1425.61851       0.8335       0.7964    1425.61851       0.8334       0.7962
   1425.60325       0.7549       0.7119    1425.60325       0.7548       0.7118
   1425.58799       0.7451       0.7967    1425.58799       0.7451       0.7965
   1425.57273       0.8615       0.7250    1425.57273       0.8614       0.7249
   1425.55747       0.7771       0.7122    1425.55747       0.7770       0.7121
   1425.54221       0.7020       0.7701    1425.54221       0.7020       0.7700
   1425.52695       0.7249       0.6811    1425.52695       0.7249       0.6810
   1425.51169       0.6910       0.7391    1425.51169       0.6909       0.7389
   1425.49644       0.6954       0.7569    1425.49644       0.6954       0.7568
   1425.48118       0.7289       0.7056    1425.48118       0.7289       0.7055
   1425.46592       0.7956       0.7561    1425.46592       0.7956       0.7559
   1425.45066       0.7406       0.8366    1425.45066       0.7406       0.8364
   1425.43540       0.7339       0.7177    1425.43540       0.7338       0.7176
   1425.42014       0.7980       0.8590    1425.42014       0.7980       0.8588
   1425.40488       0.7640       0.7547    1425.40488       0.7640       0.7546
   1425.38962       0.7746       0.7506    1425.38962       0.7745       0.7505
   1425.37437       0.7114       0.8094    1425.37437       0.7114       0.8092
   1425.35911       0.7353       0.6120    1425.35911       0.7353       0.6119
   1425.34385       0.7870       0.7273    1425.34385       0.7870       0.7271
   1425.32859       0.6710       0.7005    1425.32859       0.6710       0.7003
   1425.31333       0.7584       0.5851    1425.31333       0.7584       0.5850
   1425.29807       0.7106       0.5884    1425.29807       0.7106       0.5883
   1425.28281       0.7106       0.6392    1425.28281       0.7106       0.6391
   1425.26755       0.7226       0.7245    1425.26755       0.7226       0.7244
   1425.25229       0.7412       0.6816    1425.25229       0.7411       0.6815
   1425.23704       0.7904       0.6462    1425.23704       0.7904       0.6461
   1425.22178       0.6990       0.5820    1425.22178       0.6990       0.5819
   1425.20652       0.7633       0.6233    1425.20652       0.7632       0.6232
   1425.19126       0.8352       0.6486    1425.19126       0.8351       0.6485
   1425.17600       0.8085       0.6681    1425.17600       0.8085       0.6679
   1425.16074       0.7599       0.6266    1425.16074       0.7598       0.6264
   1425.14548       0.7368       0.6164    1425.14548       0.7368       0.6163
   1425.13022       0.6837       0.6050    1425.13022       0.6837       0.6049
   1425.11497       0.7773       0.7461    1425.11497       0.7772       0.7460
   1425.09971       0.8341       0.6444    1425.09971       0.8340       0.6443
   1425.08445       0.8337       0.5553    1425.08445       0.8336       0.5551
   1425.06919       0.7365       0.6389    1425.06919       0.7365       0.6388
   1425.05393       0.7547       0.6870    1425.05393       0.7546       0.6869
   1425.03867       0.7384       0.6619    1425.03867       0.7384       0.6618
   1425.02341       0.8168       0.5433    1425.02341       0.8168       0.5432
   1425.00815       0.8205       0.6212    1425.00815       0.8205       0.6211
   1424.99290       0.7748       0.5049    1424.99290       0.7747       0.5048
   1424.97764       0.8432       0.5845    1424.97764       0.8431       0.5844
   1424.96238       0.7646       0.5936    1424.96238       0.7646       0.5934
   1424.94712       0.8085       0.6473    1424.94712       0.8085       0.6472
   1424.93186       0.8161       0.7138    1424.93186       0.8161       0.7136
   1424.91660       0.7612       0.5594    1424.91660       0.7611       0.5593
   1424.90134       0.8064       0.5792    1424.90134       0.8063       0.5791
   1424.88608       0.7727       0.6171    1424.88608       0.7727       0.6170
   1424.87083       0.7422       0.6084    1424.87083       0.7422       0.6083
   1424.85557       0.7713       0.6372    1424.85557       0.7712       0.6371
   1424.84031       0.8317       0.5237    1424.84031       0.8317       0.5236
   1424.82505       0.8252       0.5680    1424.82505       0.8252       0.5679
   1424.80979       0.7932       0.5168    1424.80979       0.7931       0.5167
   1424.79453       0.7653       0.6182    1424.79453       0.7653       0.6181
   1424.77927       0.7830       0.5647    1424.77927       0.7829       0.5646
   1424.76401       0.7762       0.6050    1424.76401       0.7762       0.6049
   1424.74875       0.8401       0.6171    1424.74875       0.8401       0.6169
   1424.73350       0.7776       0.5541    1424.73350       0.7776       0.5540
   1424.71824       0.7869       0.5270    1424.71824       0.7869       0.5269
   1424.70298       0.8379       0.5594    1424.70298       0.8379       0.5593
   1424.68772       0.8538       0.6349    1424.68772       0.8538       0.6348
   1424.67246       0.8294       0.5304    1424.67246       0.8294       0.5303
   1424.65720       0.8800       0.5918    1424.65720       0.8800       0.5917
   1424.64194       0.7983       0.5026    1424.64194       0.7983       0.5025
   1424.62668       0.7862       0.5404    1424.62668       0.7862       0.5403
   1424.61143       0.8925       0.5232    1424.61143       0.8925       0.5231
   1424.59617       0.8856       0.4716    1424.59617       0.8855       0.4715
   1424.58091       0.8617       0.6179    1424.58091       0.8616       0.6177
   1424.56565       0.8739       0.5150    1424.56565       0.8739       0.5149
   1424.55039       0.8352       0.4643    1424.55039       0.8351       0.4642
   1424.53513       0.8615       0.5029    1424.53513       0.8614       0.5028
   1424.51987       0.8320       0.4942    1424.51987       0.8320       0.4941
   1424.50461       0.8872       0.5374    1424.50461       0.8872       0.5373
   1424.48936       0.8918       0.5077    1424.48936       0.8918       0.5076
   1424.47410       0.9012       0.5902    1424.47410       0.9011       0.5901
   1424.45884       0.8456       0.4728    1424.45884       0.8456       0.4727
   1424.44358       0.7889       0.5707    1424.44358       0.7889       0.5706
   1424.42832       0.8284       0.5328    1424.42832       0.8283       0.5327
   1424.41306       0.8177       0.5061    1424.41306       0.8177       0.5060
   1424.39780       0.9161       0.5893    1424.39780       0.9160       0.5892
   1424.38254       0.9070       0.5674    1424.38254       0.9070       0.5673
   1424.36729       0.8878       0.5519    1424.36729       0.8878       0.5518
   1424.35203       0.8596       0.5447    1424.35203       0.8596       0.5445
   1424.33677       0.8890       0.5462    1424.33677       0.8889       0.5461
   1424.32151       0.8960       0.4963    1424.32151       0.8960       0.4962
   1424.30625       0.8346       0.5503    1424.30625       0.8346       0.5502
   1424.29099       0.8506       0.5103    1424.29099       0.8505       0.5102
   1424.27573       0.8901       0.4550    1424.27573       0.8900       0.4549
   1424.26047       0.9272       0.4788    1424.26047       0.9271       0.4787
   1424.24521       0.9123       0.5169    1424.24521       0.9123       0.5168
   1424.22996       0.8962       0.5877    1424.22996       0.8962       0.5875
   1424.21470       0.9290       0.5321    1424.21470       0.9290       0.5320
   1424.19944       0.8552       0.5747    1424.19944       0.8552       0.5746
   1424.18418       0.8771       0.5809    1424.18418       0.8770       0.5808
   1424.16892       0.9439       0.5848    1424.16892       0.9439       0.5847
   1424.15366       0.8936       0.4364    1424.15366       0.8936       0.4363
   1424.13840       0.9062       0.5420    1424.13840       0.9062       0.5419
   1424.12314       0.9382       0.5734    1424.12314       0.9381       0.5733
   1424.10789       0.9464       0.4990    1424.10789       0.9463       0.4989
   1424.09263       0.8831       0.4596    1424.09263       0.8831       0.4595
   1424.07737       0.9139       0.5104    1424.07737       0.9138       0.5103
   1424.06211       0.9534       0.6853    1424.06211       0.9534       0.6852
   1424.04685       0.8572       0.5238    1424.04685       0.8572       0.5237
   1424.03159       0.9263       0.5331    1424.03159       0.9262       0.5330
   1424.01633       0.9046       0.4642    1424.01633       0.9046       0.4641
   1424.00107       0.9738       0.4256    1424.00107       0.9737       0.4255
   1423.98582       0.9620       0.4304    1423.98582       0.9619       0.4303
   1423.97056       0.9681       0.4409    1423.97056       0.9680       0.4408
   1423.95530       0.9094       0.3999    1423.95530       0.9093       0.3998
   1423.94004       0.9069       0.5100    1423.94004       0.9069       0.5099
   1423.92478       0.9874       0.5193    1423.92478       0.9874       0.5192
   1423.90952       1.0034       0.5624    1423.90952       1.0033       0.5623
   1423.89426       1.0003       0.4967    1423.89426       1.0002       0.4966
   1423.87900       0.9860       0.5089    1423.87900       0.9859       0.5088
   1423.86375       0.9984       0.5397    1423.86375       0.9984       0.5396
   1423.84849       0.9862       0.4509    1423.84849       0.9862       0.4508
   1423.83323       0.9752       0.5312    1423.83323       0.9751       0.5311
   1423.81797       1.0078       0.5321    1423.81797       1.0078       0.5320
   1423.80271       0.8721       0.4778    1423.80271       0.8721       0.4777
   1423.78745       0.9419       0.5267    1423.78745       0.9418       0.5266
   1423.77219       0.9325       0.4360    1423.77219       0.9325       0.4360
   1423.75693       0.9581       0.4013    1423.75693       0.9581       0.4013
   1423.74167       0.9206       0.5235    1423.74167       0.9205       0.5234
   1423.72642       0.9439       0.4575    1423.72642       0.9439       0.4574
   1423.71116       1.0207       0.4797    1423.71116       1.0207       0.4796
   1423.69590       0.9928       0.4795    1423.69590       0.9928       0.4794
   1423.68064       1.0579       0.5122    1423.68064       1.0579       0.5121
   1423.66538       0.9758       0.4855    1423.66538       0.9757       0.4854
   1423.65012       0.9649       0.4598    1423.65012       0.9648       0.4597
   1423.63486       1.0619       0.5304    1423.63486       1.0619       0.5303
   1423.61960       0.9987       0.4364    1423.61960       0.9986       0.4363
   1423.60435       0.9943       0.3765    1423.60435       0.9943       0.3764
   1423.58909       1.0446       0.4984    1423.58909       1.0445       0.4983
   1423.57383       1.0422       0.5824    1423.57383       1.0422       0.5823
   1423.55857       0.9746       0.5364    1423.55857       0.9746       0.5363
   1423.54331       1.0617       0.4478    1423.54331       1.0617       0.4477
   1423.52805       1.0216       0.4351    1423.52805       1.0216       0.4350
   1423.51279       0.9954       0.4093    1423.51279       0.9954       0.4092
   1423.49753       0.9920       0.4966    1423.49753       0.9920       0.4965
   1423.48228       0.9703       0.5196    1423.48228       0.9703       0.5195
   1423.46702       1.0058       0.5105    1423.46702       1.0058       0.5104
   1423.45176       0.9942       0.5528    1423.45176       0.9942       0.5527
   1423.43650       0.9507       0.4998    1423.43650       0.9506       0.4997
   1423.42124       0.9784       0.5668    1423.42124       0.9784       0.5667
   1423.40598       1.0323       0.5078    1423.40598       1.0322       0.5077
   1423.39072       0.9554       0.5057    1423.39072       0.9554       0.5056
   1423.37546       0.9343       0.5588    1423.37546       0.9343       0.5587
   1423.36021       1.0419       0.5601    1423.36021       1.0419       0.5600
   1423.34495       1.0183       0.5291    1423.34495       1.0183       0.5289
   1423.32969       0.9574       0.5207    1423.32969       0.9574       0.5206
   1423.31443       0.9624       0.5443    1423.31443       0.9624       0.5442
   1423.29917       1.0990       0.5595    1423.29917       1.0989       0.5594
   1423.28391       1.0320       0.5571    1423.28391       1.0319       0.5570
   1423.26865       0.9937       0.3992    1423.26865       0.9937       0.3992
   1423.25339       1.0169       0.5129    1423.25339       1.0168       0.5128
   1423.23813       1.0053       0.5053    1423.23813       1.0052       0.5052
   1423.22288       1.0128       0.6333    1423.22288       1.0128       0.6332
   1423.20762       1.0392       0.6400    1423.20762       1.0392       0.6399
   1423.19236       1.0865       0.6072    1423.19236       1.0865       0.6071
   1423.17710       1.0759       0.6466    1423.17710       1.0759       0.6464
   1423.16184       1.1087       0.7375    1423.16184       1.1087       0.7374
   1423.14658       1.2672       0.8325    1423.14658       1.2671       0.8324
   1423.13132       1.5066       0.9828    1423.13132       1.5065       0.9826
   1423.11606       1.7114       1.2396    1423.11606       1.7113       1.2394
   1423.10081       1.8221       1.5231    1423.10081       1.8221       1.5228
   1423.08555       2.1715       1.7623    1423.08555       2.1715       1.7619
   1423.07029       2.2467       2.0799    1423.07029       2.2466       2.0795
   1423.05503       2.4953       2.3007    1423.05503       2.4952       2.3003
   1423.03977       2.6819       2.6190    1423.03977       2.6819       2.6185
   1423.02451       3.0107       2.9977    1423.02451       3.0106       2.9971
   1423.00925       3.2620       3.3442    1423.00925       3.2619       3.3436
   1422.99399       3.8001       3.7950    1422.99399       3.8000       3.7942
   1422.97874       4.0641       4.1662    1422.97874       4.0639       4.1654
   1422.96348       4.3278       4.5025    1422.96348       4.3277       4.5016
   1422.94822       4.4965       4.7881    1422.94822       4.4964       4.7872
   1422.93296       4.7476       5.0322    1422.93296       4.7474       5.0312
   1422.91770       4.7994       5.1644    1422.91770       4.7993       5.1634
   1422.90244       4.7814       5.1540    1422.90244       4.7812       5.1530
   1422.88718       4.8103       5.1199    1422.88718       4.8101       5.1189
   1422.87192       4.7146       5.0515    1422.87192       4.7145       5.0506
   1422.85667       4.6517       4.9427    1422.85667       4.6516       4.9418
   1422.84141       4.5584       4.8064    1422.84141       4.5582       4.8055
   1422.82615       4.4912       4.6791    1422.82615       4.4911       4.6781
   1422.81089       4.3395       4.6120    1422.81089       4.3394       4.6111
   1422.79563       4.2165       4.5483    1422.79563       4.2164       4.5474
   1422.78037       4.1656       4.3680    1422.78037       4.1655       4.3671
   1422.76511       4.1008       4.0805    1422.76511       4.1007       4.0797
   1422.74985       3.8711       3.9974    1422.74985       3.8710       3.9966
   1422.73459       3.7500       3.8855    1422.73459       3.7499       3.8848
   1422.71934       3.5858       3.7335    1422.71934       3.5857       3.7328
   1422.70408       3.5188       3.5946    1422.70408       3.5187       3.5939
   1422.68882       3.3864       3.4065    1422.68882       3.3863       3.4059
   1422.67356       3.3863       3.3989    1422.67356       3.3862       3.3983
   1422.65830       3.3632       3.2948    1422.65830       3.3631       3.2941
   1422.64304       3.3204       3.5140    1422.64304       3.3203       3.5133
   1422.62778       3.3048       3.4191    1422.62778       3.3047       3.4185
   1422.61252       3.2312       3.2665    1422.61252       3.2311       3.2659
   1422.59727       3.1454       3.2043    1422.59727       3.1453       3.2037
   1422.58201       3.1572       3.0622    1422.58201       3.1571       3.0616
   1422.56675       3.1045       3.1353    1422.56675       3.1044       3.1347
   1422.55149       3.1566       3.1362    1422.55149       3.1565       3.1356
   1422.53623       3.1585       3.2390    1422.53623       3.1584       3.2384
   1422.52097       3.2148       3.1938    1422.52097       3.2147       3.1932
   1422.50571       3.1623       3.1964    1422.50571       3.1622       3.1957
   1422.49045       3.1880       3.2491    1422.49045       3.1879       3.2485
   1422.47520       3.2551       3.1816    1422.47520       3.2549       3.1810
   1422.45994       3.2075       3.1766    1422.45994       3.2074       3.1759
   1422.44468       3.1210       3.1611    1422.44468       3.1209       3.1605
   1422.42942       3.2019       3.1135    1422.42942       3.2017       3.1129
   1422.41416       3.1113       3.1125    1422.41416       3.1112       3.1119
   1422.39890       3.1259       3.1236    1422.39890       3.1258       3.1230
   1422.38364       3.0898       3.0905    1422.38364       3.0897       3.0899
   1422.36838       3.1210       3.0553    1422.36838       3.1209       3.0547
   1422.35312       3.1149       2.9487    1422.35312       3.1148       2.9481
   1422.33787       2.9998       3.0513    1422.33787       2.9997       3.0507
   1422.32261       2.9767       3.0538    1422.32261       2.9766       3.0532
   1422.30735       2.9872       2.8756    1422.30735       2.9871       2.8751
   1422.29209       2.9698       2.9070    1422.29209       2.9697       2.9065
   1422.27683       2.8952       2.7867    1422.27683       2.8951       2.7862
   1422.26157       2.8540       2.7644    1422.26157       2.8539       2.7639
   1422.24631       2.8555       2.7435    1422.24631       2.8554       2.7430
   1422.23105       2.6800       2.7749    1422.23105       2.6799       2.7743
   1422.21580       2.6041       2.6396    1422.21580       2.6040       2.6391
   1422.20054       2.4682       2.4315    1422.20054       2.4681       2.4311
   1422.18528       2.4410       2.3512    1422.18528       2.4410       2.3508
   1422.17002       2.4973       2.4134    1422.17002       2.4972       2.4129
   1422.15476       2.4453       2.2602    1422.15476       2.4452       2.2598
   1422.13950       2.4117       2.2424    1422.13950       2.4116       2.2419
   1422.12424       2.2470       2.0931    1422.12424       2.2469       2.0927
   1422.10898       2.2751       2.0165    1422.10898       2.2750       2.0161
   1422.09373       2.1605       1.9978    1422.09373       2.1604       1.9974
   1422.07847       2.1795       1.8482    1422.07847       2.1794       1.8478
   1422.06321       1.9970       1.7375    1422.06321       1.9970       1.7372
   1422.04795       1.9237       1.6988    1422.04795       1.9237       1.6984
   1422.03269       1.9106       1.5547    1422.03269       1.9105       1.5544
   1422.01743       1.8991       1.5321    1422.01743       1.8991       1.5318
   1422.00217       1.8121       1.3941    1422.00217       1.8121       1.3938
   1421.98691       1.7952       1.4286    1421.98691       1.7951       1.4283
   1421.97166       1.6884       1.3411    1421.97166       1.6883       1.3408
   1421.95640       1.6284       1.1881    1421.95640       1.6283       1.1878
   1421.94114       1.5580       1.1483    1421.94114       1.5580       1.1481
   1421.92588       1.5267       1.1925    1421.92588       1.5266       1.1922
   1421.91062       1.5396       0.9835    1421.91062       1.5396       0.9833
   1421.89536       1.3742       1.0295    1421.89536       1.3742       1.0293
   1421.88010       1.4853       0.9213    1421.88010       1.4853       0.9212
   1421.86484       1.3585       0.9018    1421.86484       1.3585       0.9016
   1421.84958       1.3954       0.8425    1421.84958       1.3953       0.8423
   1421.83433       1.2480       0.8506    1421.83433       1.2479       0.8504
   1421.81907       1.3213       0.7775    1421.81907       1.3212       0.7773
   1421.80381       1.2828       0.7597    1421.80381       1.2827       0.7595
   1421.78855       1.2014       0.7642    1421.78855       1.2013       0.7641
   1421.77329       1.2211       0.7228    1421.77329       1.2211       0.7227
   1421.75803       1.1991       0.6699    1421.75803       1.1991       0.6698
   1421.74277       1.1633       0.7331    1421.74277       1.1633       0.7330
   1421.72751       1.1844       0.6466    1421.72751       1.1844       0.6465
   1421.71226       1.2123       0.7205    1421.71226       1.2122       0.7204
   1421.69700       1.1708       0.6951    1421.69700       1.1708       0.6950
   1421.68174       1.1502       0.6494    1421.68174       1.1501       0.6493
   1421.66648       1.1325       0.6607    1421.66648       1.1324       0.6606
   1421.65122       1.1156       0.6274    1421.65122       1.1155       0.6273
   1421.63596       1.1192       0.6536    1421.63596       1.1192       0.6535
   1421.62070       1.1332       0.6701    1421.62070       1.1332       0.6700
   1421.60544       1.1113       0.6948    1421.60544       1.1113       0.6947
   1421.59019       1.1749       0.6270    1421.59019       1.1749       0.6269
   1421.57493       1.2384       0.6461    1421.57493       1.2384       0.6459
   1421.55967       1.1403       0.6761    1421.55967       1.1403       0.6760
   1421.54441       1.1683       0.6882    1421.54441       1.1682       0.6881
   1421.52915       1.1738       0.6459    1421.52915       1.1737       0.6458
   1421.51389       1.2015       0.6411    1421.51389       1.2014       0.6410
   1421.49863       1.1251       0.5919    1421.49863       1.1250       0.5917
   1421.48337       1.0464       0.6338    1421.48337       1.0464       0.6336
   1421.46812       1.1346       0.5891    1421.46812       1.1346       0.5890
   1421.45286       1.1581       0.6748    1421.45286       1.1581       0.6747
   1421.43760       1.1207       0.6660    1421.43760       1.1207       0.6659
   1421.42234       1.0585       0.6084    1421.42234       1.0585       0.6083
   1421.40708       1.1818       0.6232    1421.40708       1.1817       0.6231
   1421.39182       1.1823       0.6484    1421.39182       1.1823       0.6483
   1421.37656       1.1039       0.7249    1421.37656       1.1038       0.7248
   1421.36130       1.1577       0.6709    1421.36130       1.1576       0.6708
   1421.34604       1.1844       0.7143    1421.34604       1.1843       0.7142
   1421.33079       1.1106       0.6102    1421.33079       1.1106       0.6101
   1421.31553       1.1869       0.6716    1421.31553       1.1869       0.6714
   1421.30027       1.1247       0.6705    1421.30027       1.1246       0.6704
   1421.28501       1.1419       0.7242    1421.28501       1.1418       0.7240
   1421.26975       1.0694       0.6084    1421.26975       1.0694       0.6082
   1421.25449       1.1295       0.6473    1421.25449       1.1295       0.6472
   1421.23923       1.1183       0.5758    1421.23923       1.1182       0.5757
   1421.22397       1.1616       0.5143    1421.22397       1.1616       0.5142
   1421.20872       1.1041       0.5855    1421.20872       1.1040       0.5853
   1421.19346       1.1600       0.6353    1421.19346       1.1599       0.6352
   1421.17820       1.1000       0.6740    1421.17820       1.1000       0.6738
   1421.16294       1.1199       0.6738    1421.16294       1.1199       0.6736
   1421.14768       1.1682       0.6073    1421.14768       1.1681       0.6072
   1421.13242       1.1277       0.6299    1421.13242       1.1277       0.6298
   1421.11716       1.1247       0.6348    1421.11716       1.1246       0.6347
   1421.10190       1.0994       0.6927    1421.10190       1.0993       0.6926
   1421.08665       1.0680       0.6596    1421.08665       1.0679       0.6595
   1421.07139       1.0309       0.5968    1421.07139       1.0308       0.5967
   1421.05613       1.0522       0.6565    1421.05613       1.0521       0.6564
   1421.04087       1.0986       0.7196    1421.04087       1.0985       0.7195
   1421.02561       1.1121       0.6837    1421.02561       1.1120       0.6836
   1421.01035       1.0974       0.6161    1421.01035       1.0974       0.6160
   1420.99509       1.1420       0.6317    1420.99509       1.1420       0.6316
   1420.97983       1.0871       0.5817    1420.97983       1.0870       0.5816
   1420.96458       1.0249       0.6150    1420.96458       1.0249       0.6149
   1420.94932       1.0711       0.5853    1420.94932       1.0710       0.5852
   1420.93406       1.0894       0.5664    1420.93406       1.0893       0.5663
   1420.91880       1.0133       0.5379    1420.91880       1.0133       0.5378
   1420.90354       1.1081       0.5731    1420.90354       1.1081       0.5729
   1420.88828       1.0282       0.4359    1420.88828       1.0281       0.4358
   1420.87302       0.9488       0.4592    1420.87302       0.9488       0.4591
   1420.85776       0.9384       0.4462    1420.85776       0.9384       0.4461
   1420.84250       0.9432       0.4709    1420.84250       0.9432       0.4708
   1420.82725       0.8689       0.4794    1420.82725       0.8689       0.4793
   1420.81199       0.8227       0.4109    1420.81199       0.8227       0.4108
   1420.79673       0.8391       0.4227    1420.79673       0.8391       0.4226
   1420.78147       0.8608       0.4070    1420.78147       0.8608       0.4069
   1420.76621       0.8884       0.4639    1420.76621       0.8884       0.4639
   1420.75095       0.9531       0.5459    1420.75095       0.9531       0.5458
   1420.73569       1.0093       0.4820    1420.73569       1.0092       0.4819
   1420.72043       0.9926       0.5373    1420.72043       0.9925       0.5372
   1420.70518       1.0638       0.6155    1420.70518       1.0638       0.6154
   1420.68992       1.2592       0.8154    1420.68992       1.2592       0.8152
   1420.67466       1.4641       1.0799    1420.67466       1.4640       1.0797
   1420.65940       1.7275       1.3902    1420.65940       1.7274       1.3900
   1420.64414       1.9319       1.6414    1420.64414       1.9318       1.6411
   1420.62888       1.9483       1.7540    1420.62888       1.9482       1.7536
   1420.61362       2.0790       1.8505    1420.61362       2.0790       1.8501
   1420.59836       2.0334       1.8355    1420.59836       2.0333       1.8351
   1420.58311       2.0200       1.8669    1420.58311       2.0200       1.8665
   1420.56785       2.0241       1.9595    1420.56785       2.0241       1.9591
   1420.55259       2.1850       1.8309    1420.55259       2.1850       1.8305
   1420.53733       1.3801       0.9000    1420.53733       1.3800       0.8999
   1420.52207       0.8922       0.3221    1420.52207       0.8922       0.3220
   1420.50681       0.6027       0.0097    1420.50681       0.6026       0.0097
   1420.49155       0.5426      -0.1364    1420.49155       0.5426      -0.1364
   1420.47629       0.0138      -0.6699    1420.47629       0.0138      -0.6698
   1420.46104       0.0285      -0.6524    1420.46104       0.0285      -0.6523
   1420.44578       0.2288      -0.4114    1420.44578       0.2288      -0.4113
   1420.43052       0.4615      -0.2317    1420.43052       0.4615      -0.2316
   1420.41526       0.1959      -0.5746    1420.41526       0.1959      -0.5745
   1420.40000      -0.1081      -0.9702    1420.40000      -0.1081      -0.9700
   1420.38474      -0.3964      -1.3399    1420.38474      -0.3963      -1.3396
   1420.36948       2.0341       1.8464    1420.36948       2.0340       1.8460
   1420.35422       5.8610       6.7445    1420.35422       5.8608       6.7431
   1420.33896       2.9000       3.0504    1420.33896       2.8999       3.0498
   1420.32371       1.2477       0.9021    1420.32371       1.2476       0.9020
   1420.30845       1.4411       0.9457    1420.30845       1.4411       0.9455
   1420.29319       1.2312       0.7626    1420.29319       1.2312       0.7625
   1420.27793       1.0648       0.6136    1420.27793       1.0647       0.6135
   1420.26267       0.9314       0.3063    1420.26267       0.9313       0.3063
   1420.24741       0.8933       0.3260    1420.24741       0.8933       0.3259
   1420.23215       0.9791       0.2175    1420.23215       0.9791       0.2174
   1420.21689       0.9308       0.3428    1420.21689       0.9308       0.3427
   1420.20164       0.9313       0.3985    1420.20164       0.9313       0.3984
   1420.18638       1.0016       0.3641    1420.18638       1.0016       0.3640
   1420.17112       1.0261       0.4047    1420.17112       1.0260       0.4046
   1420.15586       1.0171       0.4767    1420.15586       1.0171       0.4767
   1420.14060       1.0156       0.4087    1420.14060       1.0155       0.4087
   1420.12534       1.0610       0.4093    1420.12534       1.0610       0.4093
   1420.11008       0.9845       0.4978    1420.11008       0.9845       0.4977
   1420.09482       1.0292       0.4709    1420.09482       1.0292       0.4708
   1420.07957       0.9953       0.4815    1420.07957       0.9953       0.4814
   1420.06431       1.0362       0.4589    1420.06431       1.0361       0.4589
   1420.04905       1.0975       0.4907    1420.04905       1.0975       0.4906
   1420.03379       1.0862       0.4167    1420.03379       1.0862       0.4166
   1420.01853       1.0620       0.4556    1420.01853       1.0620       0.4555
   1420.00327       1.1067       0.4584    1420.00327       1.1066       0.4584
   1419.98801       1.0958       0.4221    1419.98801       1.0958       0.4221
   1419.97275       1.0761       0.4266    1419.97275       1.0761       0.4265
   1419.95750       1.0796       0.3411    1419.95750       1.0795       0.3410
   1419.94224       1.0372       0.4011    1419.94224       1.0372       0.4010
   1419.92698       1.0590       0.4144    1419.92698       1.0589       0.4143
   1419.91172       1.0523       0.4287    1419.91172       1.0523       0.4286
   1419.89646       1.0415       0.3935    1419.89646       1.0414       0.3934
   1419.88120       1.0198       0.4033    1419.88120       1.0198       0.4033
   1419.86594       1.0419       0.3803    1419.86594       1.0419       0.3802
   1419.85068       1.0220       0.3400    1419.85068       1.0219       0.3400
   1419.83542       1.0734       0.2901    1419.83542       1.0733       0.2900
   1419.82017       1.0335       0.3651    1419.82017       1.0335       0.3650
   1419.80491       0.9956       0.3548    1419.80491       0.9955       0.3547
   1419.78965       1.0562       0.4127    1419.78965       1.0561       0.4126
   1419.77439       0.9869       0.3611    1419.77439       0.9869       0.3610
   1419.75913       1.0653       0.3627    1419.75913       1.0652       0.3626
   1419.74387       1.0549       0.4232    1419.74387       1.0548       0.4231
   1419.72861       1.0732       0.4076    1419.72861       1.0731       0.4075
   1419.71335       0.9906       0.3771    1419.71335       0.9906       0.3771
   1419.69810       0.9807       0.3447    1419.69810       0.9806       0.3447
   1419.68284       0.9431       0.4210    1419.68284       0.9430       0.4209
   1419.66758       0.9177       0.3534    1419.66758       0.9177       0.3534
   1419.65232       0.9572       0.3761    1419.65232       0.9572       0.3760
   1419.63706       0.9760       0.3580    1419.63706       0.9759       0.3579
   1419.62180       0.9325       0.3342    1419.62180       0.9324       0.3341
   1419.60654       0.9617       0.3153    1419.60654       0.9617       0.3152
   1419.59128       1.0298       0.3397    1419.59128       1.0298       0.3396
   1419.57603       1.0175       0.2003    1419.57603       1.0174       0.2003
   1419.56077       1.0423       0.3268    1419.56077       1.0422       0.3267
   1419.54551       1.0137       0.2541    1419.54551       1.0137       0.2540
   1419.53025       0.9891       0.3180    1419.53025       0.9890       0.3180
   1419.51499       1.0110       0.2798    1419.51499       1.0109       0.2798
   1419.49973       1.0600       0.2758    1419.49973       1.0599       0.2758
   1419.48447       0.9797       0.3918    1419.48447       0.9796       0.3918
   1419.46921       0.9105       0.2775    1419.46921       0.9104       0.2775
   1419.45396       1.0332       0.3377    1419.45396       1.0332       0.3376
   1419.43870       0.9818       0.3028    1419.43870       0.9818       0.3027
   1419.42344       1.0014       0.2961    1419.42344       1.0014       0.2960
   1419.40818       1.0246       0.2472    1419.40818       1.0245       0.2472
   1419.39292       0.9982       0.2788    1419.39292       0.9981       0.2788
   1419.37766       0.9893       0.3192    1419.37766       0.9893       0.3191
   1419.36240       0.9795       0.2664    1419.36240       0.9795       0.2664
   1419.34714       0.9490       0.1958    1419.34714       0.9490       0.1957
   1419.33188       0.9839       0.2635    1419.33188       0.9838       0.2634
   1419.31663       0.9456       0.2744    1419.31663       0.9455       0.2744
   1419.30137       0.9741       0.2785    1419.30137       0.9740       0.2784
   1419.28611       0.9552       0.1516    1419.28611       0.9552       0.1516
   1419.27085       0.9799       0.2979    1419.27085       0.9799       0.2978
   1419.25559       0.9245       0.3337    1419.25559       0.9245       0.3336
   1419.24033       0.9511       0.2354    1419.24033       0.9511       0.2353
   1419.22507       0.9643       0.2363    1419.22507       0.9643       0.2363
   1419.20981       0.9130       0.2664    1419.20981       0.9129       0.2663
   1419.19456       0.9779       0.2716    1419.19456       0.9779       0.2716
   1419.17930       1.0155       0.2116    1419.17930       1.0155       0.2115
   1419.16404       0.9949       0.2593    1419.16404       0.9949       0.2593
   1419.14878       0.9131       0.2061    1419.14878       0.9131       0.2060
   1419.13352       0.9407       0.2788    1419.13352       0.9406       0.2787
   1419.11826       0.9855       0.1663    1419.11826       0.9854       0.1663
   1419.10300       0.8927       0.2730    1419.10300       0.8926       0.2729
   1419.08774       0.9081       0.3154    1419.08774       0.9081       0.3153
   1419.07249       1.0267       0.2347    1419.07249       1.0266       0.2346
   1419.05723       0.9290       0.1945    1419.05723       0.9289       0.1945
   1419.04197       0.8816       0.2086    1419.04197       0.8816       0.2086
   1419.02671       0.9455       0.2554    1419.02671       0.9455       0.2554
   1419.01145       0.9216       0.1789    1419.01145       0.9216       0.1789
   1418.99619       0.8738       0.1911    1418.99619       0.8738       0.1911
   1418.98093       0.9532       0.2490    1418.98093       0.9531       0.2489
   1418.96567       0.8947       0.2519    1418.96567       0.8946       0.2519
   1418.95042       0.8996       0.1836    1418.95042       0.8996       0.1835
   1418.93516       1.0174       0.1625    1418.93516       1.0174       0.1624
   1418.91990       0.9585       0.0944    1418.91990       0.9584       0.0944
   1418.90464       0.9133       0.0821    1418.90464       0.9132       0.0821
   1418.88938       0.9418       0.2229    1418.88938       0.9418       0.2228
   1418.87412       0.8687       0.0964    1418.87412       0.8687       0.0964
   1418.85886       0.9008       0.2187    1418.85886       0.9007       0.2186
   1418.84360       0.9363       0.1654    1418.84360       0.9362       0.1654
   1418.82834       0.9949       0.1613    1418.82834       0.9949       0.1612
   1418.81309       0.9368       0.1306    1418.81309       0.9368       0.1305
   1418.79783       0.8574       0.2072    1418.79783       0.8573       0.2072
   1418.78257       0.8282       0.1386    1418.78257       0.8282       0.1385
   1418.76731       0.8767       0.1947    1418.76731       0.8767       0.1947
   1418.75205       0.9380       0.1173    1418.75205       0.9380       0.1173
   1418.73679       0.9157       0.0839    1418.73679       0.9157       0.0839
   1418.72153       0.9008       0.1381    1418.72153       0.9008       0.1381
   1418.70627       0.8289       0.0800    1418.70627       0.8288       0.0800
   1418.69102       0.8799       0.1364    1418.69102       0.8799       0.1364
   1418.67576       0.9141       0.1309    1418.67576       0.9141       0.1308
   1418.66050       0.9291       0.1692    1418.66050       0.9291       0.1692
   1418.64524       0.8889       0.1463    1418.64524       0.8889       0.1463
   1418.62998       0.9132       0.1314    1418.62998       0.9132       0.1313
   1418.61472       0.8715       0.1595    1418.61472       0.8714       0.1595
   1418.59946       0.8259       0.1548    1418.59946       0.8259       0.1547
   1418.58420       0.8359       0.2571    1418.58420       0.8358       0.2570
   1418.56895       0.8247       0.1647    1418.56895       0.8247       0.1647
   1418.55369       0.9338       0.2352    1418.55369       0.9338       0.2351
   1418.53843       0.9456       0.1217    1418.53843       0.9456       0.1217
   1418.52317       0.9592       0.1118    1418.52317       0.9591       0.1118
   1418.50791       0.9618       0.0988    1418.50791       0.9618       0.0987
   1418.49265       0.9327       0.1924    1418.49265       0.9327       0.1924
   1418.47739       0.8144       0.1771    1418.47739       0.8143       0.1770
   1418.46213       0.8486       0.2496    1418.46213       0.8486       0.2495
   1418.44687       0.8022       0.2327    1418.44687       0.8022       0.2326
   1418.43162       0.8419       0.2346    1418.43162       0.8419       0.2345
   1418.41636       0.8132       0.1367    1418.41636       0.8132       0.1367
   1418.40110       0.8380       0.0802    1418.40110       0.8380       0.0802
   1418.38584       0.8613       0.1549    1418.38584       0.8613       0.1549
   1418.37058       0.8372       0.2180    1418.37058       0.8372       0.2179
   1418.35532       0.8566       0.1191    1418.35532       0.8566       0.1191
   1418.34006       0.8306       0.1173    1418.34006       0.8306       0.1173
   1418.32480       0.8848       0.0792    1418.32480       0.8847       0.0792
   1418.30955       0.8259       0.1470    1418.30955       0.8258       0.1470
   1418.29429       0.7762       0.1735    1418.29429       0.7761       0.1735
   1418.27903       0.8577       0.1847    1418.27903       0.8577       0.1847
   1418.26377       0.8032       0.1635    1418.26377       0.8032       0.1634
   1418.24851       0.8278       0.1053    1418.24851       0.8278       0.1053
   1418.23325       0.8625       0.0927    1418.23325       0.8625       0.0927
   1418.21799       0.8156       0.1944    1418.21799       0.8156       0.1944
   1418.20273       0.8268       0.1566    1418.20273       0.8268       0.1565
   1418.18748       0.8305       0.0768    1418.18748       0.8305       0.0768
   1418.17222       0.8720       0.1474    1418.17222       0.8720       0.1474
   1418.15696       0.8762       0.2017    1418.15696       0.8761       0.2017
   1418.14170       0.7989       0.1538    1418.14170       0.7989       0.1538
   1418.12644       0.8648       0.1913    1418.12644       0.8648       0.1913
   1418.11118       0.8396       0.1213    1418.11118       0.8396       0.1213
   1418.09592       0.8566      -0.0084    1418.09592       0.8565      -0.0084
   1418.08066       0.8031       0.1737    1418.08066       0.8030       0.1737
   1418.06541       0.8082       0.1514    1418.06541       0.8082       0.1514
   1418.05015       0.7980       0.1667    1418.05015       0.7980       0.1666
   1418.03489       0.7849       0.1018    1418.03489       0.7849       0.1018
   1418.01963       0.8108       0.0744    1418.01963       0.8108       0.0744
   1418.00437       0.8292       0.2797    1418.00437       0.8292       0.2796
   1417.98911       0.8815       0.2445    1417.98911       0.8815       0.2445
   1417.97385       0.8301       0.1564    1417.97385       0.8300       0.1564
   1417.95859       0.8752       0.1806    1417.95859       0.8751       0.1806
   1417.94333       0.8591       0.1522    1417.94333       0.8590       0.1521
   1417.92808       0.8340       0.1434    1417.92808       0.8340       0.1434
   1417.91282       0.8711       0.1446    1417.91282       0.8711       0.1446
   1417.89756       0.8229       0.1105    1417.89756       0.8228       0.1104
   1417.88230       0.7702       0.1388    1417.88230       0.7702       0.1387
   1417.86704       0.8192       0.1907    1417.86704       0.8192       0.1907
   1417.85178       0.8612       0.1333    1417.85178       0.8612       0.1333
   1417.83652       0.8545       0.2253    1417.83652       0.8545       0.2253
   1417.82126       0.7298       0.0485    1417.82126       0.7298       0.0485
   1417.80601       0.7961       0.2239    1417.80601       0.7961       0.2239
   1417.79075       0.8497       0.1897    1417.79075       0.8497       0.1896
   1417.77549       0.7724       0.2354    1417.77549       0.7723       0.2354
   1417.76023       0.8331       0.1097    1417.76023       0.8331       0.1097
   1417.74497       0.8043       0.1965    1417.74497       0.8042       0.1965
   1417.72971       0.8080       0.2433    1417.72971       0.8080       0.2433
   1417.71445       0.8165       0.2316    1417.71445       0.8165       0.2316
   1417.69919       0.8755       0.1583    1417.69919       0.8754       0.1582
   1417.68394       0.8094       0.2306    1417.68394       0.8093       0.2306
   1417.66868       0.7819       0.2453    1417.66868       0.7819       0.2453
   1417.65342       0.8045       0.2348    1417.65342       0.8045       0.2347
   1417.63816       0.8428       0.2372    1417.63816       0.8428       0.2372
   1417.62290       0.7771       0.1895    1417.62290       0.7771       0.1895
   1417.60764       0.8116       0.2409    1417.60764       0.8116       0.2408
   1417.59238       0.8273       0.1737    1417.59238       0.8273       0.1737
   1417.57712       0.8170       0.1151    1417.57712       0.8169       0.1151
   1417.56187       0.8551       0.1602    1417.56187       0.8551       0.1602
   1417.54661       0.7497       0.3066    1417.54661       0.7496       0.3065
   1417.53135       0.7626       0.2929    1417.53135       0.7626       0.2928
   1417.51609       0.8279       0.1598    1417.51609       0.8279       0.1598
   1417.50083       0.9036       0.1947    1417.50083       0.9035       0.1947
   1417.48557       0.7648       0.1841    1417.48557       0.7648       0.1840
   1417.47031       0.7447       0.2686    1417.47031       0.7447       0.2685
   1417.45505       0.8231       0.1614    1417.45505       0.8231       0.1614
   1417.43979       0.8320       0.2174    1417.43979       0.8320       0.2174
   1417.42454       0.8651       0.2046    1417.42454       0.8650       0.2046
   1417.40928       0.8546       0.2314    1417.40928       0.8546       0.2313
   1417.39402       0.8684       0.1727    1417.39402       0.8684       0.1727
   1417.37876       0.7720       0.2322    1417.37876       0.7720       0.2321
   1417.36350       0.7476       0.2742    1417.36350       0.7475       0.2741
   1417.34824       0.7841       0.2786    1417.34824       0.7840       0.2786
   1417.33298       0.7667       0.2846    1417.33298       0.7667       0.2845
   1417.31772       0.8070       0.2425    1417.31772       0.8070       0.2424
   1417.30247       0.8202       0.1564    1417.30247       0.8202       0.1564
   1417.28721       0.8496       0.3543    1417.28721       0.8495       0.3543
   1417.27195       0.8239       0.2914    1417.27195       0.8239       0.2913
   1417.25669       0.8421       0.2297    1417.25669       0.8421       0.2297
   1417.24143       0.8461       0.2734    1417.24143       0.8460       0.2733
   1417.22617       0.8816       0.2457    1417.22617       0.8816       0.2457
   1417.21091       0.7986       0.3267    1417.21091       0.7986       0.3267
   1417.19565       0.7988       0.3147    1417.19565       0.7988       0.3146
   1417.18040       0.8766       0.2489    1417.18040       0.8765       0.2489
   1417.16514       0.9011       0.2752    1417.16514       0.9011       0.2752
   1417.14988       0.8391       0.3487    1417.14988       0.8390       0.3486
   1417.13462       0.9212       0.2771    1417.13462       0.9212       0.2771
   1417.11936       0.8013       0.2235    1417.11936       0.8013       0.2234
   1417.10410       0.8563       0.3046    1417.10410       0.8563       0.3045
   1417.08884       0.8070       0.2582    1417.08884       0.8070       0.2581
   1417.07358       0.8650       0.2770    1417.07358       0.8650       0.2769
   1417.05833       0.8611       0.3393    1417.05833       0.8611       0.3393
   1417.04307       0.8497       0.2716    1417.04307       0.8497       0.2716
   1417.02781       0.7969       0.2492    1417.02781       0.7969       0.2492
   1417.01255       0.8495       0.2936    1417.01255       0.8495       0.2936
   1416.99729       0.8036       0.3310    1416.99729       0.8035       0.3309
   1416.98203       0.8636       0.3307    1416.98203       0.8635       0.3306
   1416.96677       0.8394       0.3039    1416.96677       0.8393       0.3038
   1416.95151       0.8400       0.3090    1416.95151       0.8400       0.3089
   1416.93625       0.8550       0.4523    1416.93625       0.8549       0.4522
   1416.92100       0.8430       0.3098    1416.92100       0.8430       0.3098
   1416.90574       0.8133       0.3899    1416.90574       0.8133       0.3898
   1416.89048       0.8801       0.3420    1416.89048       0.8800       0.3419
   1416.87522       0.8401       0.4504    1416.87522       0.8401       0.4503
   1416.85996       0.8639       0.4014    1416.85996       0.8639       0.4013
   1416.84470       0.8157       0.4690    1416.84470       0.8157       0.4689
   1416.82944       0.8727       0.4304    1416.82944       0.8727       0.4303
   1416.81418       0.8571       0.3314    1416.81418       0.8571       0.3314
   1416.79893       0.7826       0.3959    1416.79893       0.7826       0.3958
   1416.78367       0.7871       0.3820    1416.78367       0.7871       0.3819
   1416.76841       0.7951       0.3479    1416.76841       0.7951       0.3478
   1416.75315       0.8565       0.4274    1416.75315       0.8564       0.4273
   1416.73789       0.8451       0.4259    1416.73789       0.8451       0.4258
   1416.72263       0.8127       0.4810    1416.72263       0.8127       0.4809
   1416.70737       0.8105       0.3890    1416.70737       0.8104       0.3889
   1416.69211       0.8041       0.4903    1416.69211       0.8041       0.4902
   1416.67686       0.8609       0.4069    1416.67686       0.8609       0.4069
   1416.66160       0.8703       0.4750    1416.66160       0.8703       0.4749
   1416.64634       0.8555       0.4965    1416.64634       0.8554       0.4964
   1416.63108       0.8333       0.4136    1416.63108       0.8333       0.4135
   1416.61582       0.8962       0.4358    1416.61582       0.8962       0.4357
   1416.60056       0.8736       0.5681    1416.60056       0.8736       0.5680
   1416.58530       0.8687       0.5408    1416.58530       0.8686       0.5407
   1416.57004       0.8944       0.4717    1416.57004       0.8944       0.4716
   1416.55479       0.8115       0.5250    1416.55479       0.8114       0.5249
   1416.53953       0.9175       0.5028    1416.53953       0.9174       0.5027
   1416.52427       0.8723       0.4852    1416.52427       0.8723       0.4851
   1416.50901       0.8707       0.5328    1416.50901       0.8706       0.5327
   1416.49375       0.8572       0.4795    1416.49375       0.8572       0.4794
   1416.47849       0.8571       0.5697    1416.47849       0.8570       0.5695
   1416.46323       0.8523       0.4903    1416.46323       0.8523       0.4902
   1416.44797       0.8657       0.4788    1416.44797       0.8657       0.4787
   1416.43271       0.8004       0.5478    1416.43271       0.8003       0.5477
   1416.41746       0.8930       0.4097    1416.41746       0.8930       0.4096
   1416.40220       0.8465       0.4658    1416.40220       0.8465       0.4657
   1416.38694       0.9214       0.5236    1416.38694       0.9214       0.5235
   1416.37168       0.9004       0.5658    1416.37168       0.9003       0.5657
   1416.35642       0.9465       0.4933    1416.35642       0.9465       0.4932
   1416.34116       0.9367       0.5517    1416.34116       0.9367       0.5516
   1416.32590       0.8700       0.5856    1416.32590       0.8700       0.5855
   1416.31064       0.8843       0.4775    1416.31064       0.8843       0.4774
   1416.29539       0.9122       0.5198    1416.29539       0.9122       0.5197
   1416.28013       0.8529       0.5843    1416.28013       0.8529       0.5842
   1416.26487       0.9036       0.5635    1416.26487       0.9036       0.5634
   1416.24961       0.8798       0.5985    1416.24961       0.8798       0.5984
   1416.23435       0.8621       0.5723    1416.23435       0.8620       0.5722
   1416.21909       0.8650       0.6699    1416.21909       0.8650       0.6698
   1416.20383       0.8458       0.6616    1416.20383       0.8458       0.6614
   1416.18857       0.8638       0.6126    1416.18857       0.8638       0.6125
   1416.17332       0.8312       0.6234    1416.17332       0.8312       0.6233
   1416.15806       0.8642       0.6513    1416.15806       0.8642       0.6512
   1416.14280       0.8676       0.6205    1416.14280       0.8676       0.6204
   1416.12754       0.9128       0.5304    1416.12754       0.9128       0.5303
   1416.11228       0.9666       0.6316    1416.11228       0.9666       0.6315
   1416.09702       0.8862       0.6531    1416.09702       0.8861       0.6530
   1416.08176       0.9251       0.5629    1416.08176       0.9251       0.5628
   1416.06650       0.9396       0.6230    1416.06650       0.9396       0.6229
   1416.05125       0.8629       0.6570    1416.05125       0.8629       0.6569
   1416.03599       0.9743       0.6398    1416.03599       0.9743       0.6397
   1416.02073       0.9843       0.8397    1416.02073       0.9843       0.8396
   1416.00547       0.8979       0.6461    1416.00547       0.8979       0.6460
   1415.99021       0.8888       0.7176    1415.99021       0.8888       0.7174
   1415.97495       0.7887       0.5995    1415.97495       0.7887       0.5994
   1415.95969       0.9641       0.6110    1415.95969       0.9641       0.6108
   1415.94443       0.8563       0.6676    1415.94443       0.8563       0.6675
   1415.92917       1.0066       0.6300    1415.92917       1.0065       0.6299
   1415.91392       0.9121       0.6693    1415.91392       0.9121       0.6692
   1415.89866       0.9218       0.7120    1415.89866       0.9218       0.7119
   1415.88340       0.8781       0.7520    1415.88340       0.8780       0.7518
   1415.86814       0.9555       0.7738    1415.86814       0.9555       0.7736
   1415.85288       0.8769       0.6929    1415.85288       0.8769       0.6928
   1415.83762       0.9557       0.7173    1415.83762       0.9557       0.7172
   1415.82236       0.8989       0.7362    1415.82236       0.8989       0.7360
   1415.80710       0.8780       0.8577    1415.80710       0.8780       0.8575
   1415.79185       0.8960       0.8064    1415.79185       0.8959       0.8063
   1415.77659       0.9303       0.7090    1415.77659       0.9303       0.7088
   1415.76133       0.9791       0.7795    1415.76133       0.9790       0.7794
   1415.74607       0.9288       0.7883    1415.74607       0.9288       0.7881
   1415.73081       0.9420       0.8079    1415.73081       0.9420       0.8077
   1415.71555       0.9407       0.6892    1415.71555       0.9407       0.6890
   1415.70029       0.9009       0.7067    1415.70029       0.9008       0.7065
   1415.68503       0.9192       0.8406    1415.68503       0.9192       0.8404
   1415.66978       0.9348       0.8586    1415.66978       0.9347       0.8584
   1415.65452       0.9158       0.9247    1415.65452       0.9158       0.9246
   1415.63926       0.9132       0.8352    1415.63926       0.9131       0.8351
   1415.62400       0.8717       0.8955    1415.62400       0.8717       0.8953
   1415.60874       0.9666       0.8864    1415.60874       0.9666       0.8862
   1415.59348       0.9929       0.7501    1415.59348       0.9929       0.7499
   1415.57822       1.0087       0.8463    1415.57822       1.0087       0.8461
   1415.56296       0.9351       0.8413    1415.56296       0.9351       0.8411
   1415.54771       0.9912       0.7299    1415.54771       0.9912       0.7298
   1415.53245       0.8880       0.8671    1415.53245       0.8880       0.8669
   1415.51719       0.9129       0.8907    1415.51719       0.9128       0.8905
   1415.50193       0.8892       0.8642    1415.50193       0.8892       0.8640
   1415.48667       0.8960       0.9247    1415.48667       0.8959       0.9245
   1415.47141       0.9323       0.8557    1415.47141       0.9323       0.8556
   1415.45615       0.9594       0.9157    1415.45615       0.9594       0.9155
   1415.44089       0.9362       0.8258    1415.44089       0.9362       0.8256
   1415.42563       0.8638       0.9462    1415.42563       0.8638       0.9461
   1415.41038       0.9162       0.8261    1415.41038       0.9162       0.8259
   1415.39512       0.9887       0.8678    1415.39512       0.9886       0.8677
   1415.37986       0.9655       0.8889    1415.37986       0.9655       0.8887
   1415.36460       0.8973       0.7790    1415.36460       0.8973       0.7788
   1415.34934       0.9317       0.8633    1415.34934       0.9317       0.8632
   1415.33408       0.9121       0.9720    1415.33408       0.9121       0.9718
   1415.31882       0.9575       0.8962    1415.31882       0.9575       0.8960
   1415.30356       0.8642       0.8512    1415.30356       0.8642       0.8510
   1415.28831       0.9118       0.8598    1415.28831       0.9118       0.8596
   1415.27305       0.9518       0.8804    1415.27305       0.9518       0.8803
   1415.25779       0.9420       0.9169    1415.25779       0.9419       0.9167
   1415.24253       0.9682       0.9395    1415.24253       0.9682       0.9393
   1415.22727       0.9315       0.8894    1415.22727       0.9315       0.8893
   1415.21201       0.9802       0.9056    1415.21201       0.9801       0.9054
   1415.19675       0.9746       0.9305    1415.19675       0.9746       0.9303
   1415.18149       0.9714       0.9867    1415.18149       0.9714       0.9866
   1415.16624       1.0140       0.9407    1415.16624       1.0139       0.9405
   1415.15098       0.9595       0.9189    1415.15098       0.9595       0.9187
   1415.13572       0.8895       0.9411    1415.13572       0.8895       0.9409
   1415.12046       0.9200       0.9021    1415.12046       0.9200       0.9019
   1415.10520       0.9050       0.8454    1415.10520       0.9050       0.8453
   1415.08994       0.9154       1.0502    1415.08994       0.9154       1.0500
   1415.07468       1.0394       1.0123    1415.07468       1.0394       1.0121
   1415.05942       0.9837       1.0061    1415.05942       0.9837       1.0059
   1415.04417       1.0105       0.9982    1415.04417       1.0104       0.9980
   1415.02891       0.9874       0.9851    1415.02891       0.9874       0.9849
   1415.01365       0.9481       0.9382    1415.01365       0.9481       0.9380
   1414.99839       0.9827       0.9389    1414.99839       0.9827       0.9387
   1414.98313       0.9106       0.9555    1414.98313       0.9106       0.9553
   1414.96787       0.8997       0.9420    1414.96787       0.8997       0.9418
   1414.95261       0.8940       0.9486    1414.95261       0.8940       0.9485
   1414.93735       0.9770       1.0584    1414.93735       0.9770       1.0582
   1414.92209       0.8984       0.9206    1414.92209       0.8983       0.9204
   1414.90684       0.9159       0.8172    1414.90684       0.9159       0.8170
   1414.89158       0.9325       1.0932    1414.89158       0.9325       1.0930
   1414.87632       0.9359       1.0191    1414.87632       0.9359       1.0189
   1414.86106       0.9577       0.9715    1414.86106       0.9577       0.9713
   1414.84580       0.9345       0.9363    1414.84580       0.9345       0.9361
   1414.83054       0.9405       0.8985    1414.83054       0.9404       0.8983
   1414.81528       1.0189       0.9716    1414.81528       1.0188       0.9714
   1414.80002       0.9291       0.8857    1414.80002       0.9290       0.8855
   1414.78477       0.9945       1.0419    1414.78477       0.9945       1.0417
   1414.76951       0.9610       0.9814    1414.76951       0.9610       0.9812
   1414.75425       1.0092       0.8735    1414.75425       1.0092       0.8734
   1414.73899       0.9791       1.0007    1414.73899       0.9791       1.0005
   1414.72373       0.9623       1.0188    1414.72373       0.9623       1.0186
   1414.70847       0.9815       0.9611    1414.70847       0.9815       0.9609
   1414.69321       0.8797       1.0822    1414.69321       0.8797       1.0820
   1414.67795       0.9245       1.0907    1414.67795       0.9245       1.0905
   1414.66270       0.9807       1.0141    1414.66270       0.9806       1.0139
   1414.64744       0.9348       0.9600    1414.64744       0.9348       0.9598
   1414.63218       0.9626       1.1052    1414.63218       0.9626       1.1050
   1414.61692       0.9651       1.0927    1414.61692       0.9651       1.0925
   1414.60166       0.9731       0.9671    1414.60166       0.9731       0.9669
   1414.58640       0.9813       1.0039    1414.58640       0.9812       1.0037
   1414.57114       0.9748       0.9531    1414.57114       0.9748       0.9529
   1414.55588       1.0091       0.9606    1414.55588       1.0091       0.9604
   1414.54062       0.9617       1.0243    1414.54062       0.9617       1.0241
   1414.52537       0.8870       1.0145    1414.52537       0.8870       1.0143
   1414.51011       1.0060       1.1097    1414.51011       1.0060       1.1094
   1414.49485       0.9358       1.0224    1414.49485       0.9357       1.0222
   1414.47959       0.9069       1.0609    1414.47959       0.9069       1.0606
   1414.46433       0.9408       1.0137    1414.46433       0.9408       1.0135
   1414.44907       0.9734       1.0074    1414.44907       0.9733       1.0072
   1414.43381       0.9194       1.1333    1414.43381       0.9194       1.1331
   1414.41855       0.9637       1.0046    1414.41855       0.9637       1.0044
   1414.40330       0.9409       0.9659    1414.40330       0.9409       0.9657
   1414.38804       0.8646       1.0712    1414.38804       0.8646       1.0710
   1414.37278       0.8893       1.0568    1414.37278       0.8893       1.0566
   1414.35752       0.9431       0.9865    1414.35752       0.9431       0.9863
   1414.34226       0.9536       0.9941    1414.34226       0.9535       0.9939
   1414.32700       0.8771       0.9974    1414.32700       0.8771       0.9973
   1414.31174       0.9566       0.9856    1414.31174       0.9566       0.9854
   1414.29648       0.9460       1.0856    1414.29648       0.9460       1.0854
   1414.28123       0.9415       1.0325    1414.28123       0.9415       1.0323
   1414.26597       0.9080       1.0518    1414.26597       0.9080       1.0515
   1414.25071       0.9171       0.9660    1414.25071       0.9171       0.9658
   1414.23545       0.9212       0.9987    1414.23545       0.9212       0.9985
   1414.22019       0.8888       1.0515    1414.22019       0.8888       1.0512
   1414.20493       0.9065       1.1282    1414.20493       0.9065       1.1280
   1414.18967       0.8998       0.8738    1414.18967       0.8997       0.8736
   1414.17441       0.9141       0.9831    1414.17441       0.9140       0.9829
   1414.15916       0.9533       1.0632    1414.15916       0.9532       1.0629
   1414.14390       0.9612       1.0899    1414.14390       0.9612       1.0897
   1414.12864       0.9014       1.0073    1414.12864       0.9014       1.0071
   1414.11338       0.8809       0.8993    1414.11338       0.8809       0.8991
   1414.09812       0.8656       1.0254    1414.09812       0.8656       1.0252
   1414.08286       0.9253       0.9624    1414.08286       0.9252       0.9622
   1414.06760       0.8858       1.0481    1414.06760       0.8858       1.0478
   1414.05234       0.9608       1.0357    1414.05234       0.9607       1.0355
   1414.03708       0.8829       1.0217    1414.03708       0.8829       1.0215
   1414.02183       0.8079       1.0036    1414.02183       0.8078       1.0034
   1414.00657       0.9361       1.0085    1414.00657       0.9361       1.0083
   1413.99131       0.9286       1.0669    1413.99131       0.9286       1.0667
   1413.97605       1.0234       1.0306    1413.97605       1.0233       1.0304
   1413.96079       0.8986       0.9339    1413.96079       0.8985       0.9337
   1413.94553       0.9761       0.9467    1413.94553       0.9760       0.9465
   1413.93027       0.9202       0.9263    1413.93027       0.9202       0.9262
   1413.91501       0.9490       0.9343    1413.91501       0.9489       0.9341
   1413.89976       0.9075       0.9911    1413.89976       0.9075       0.9909
   1413.88450       0.9325       0.8809    1413.88450       0.9325       0.8807
   1413.86924       0.9562       1.0590    1413.86924       0.9562       1.0588
   1413.85398       0.9084       0.9546    1413.85398       0.9084       0.9545
   1413.83872       0.8948       0.9577    1413.83872       0.8948       0.9576
   1413.82346       1.0191       0.9320    1413.82346       1.0191       0.9318
   1413.80820       0.8656       0.9542    1413.80820       0.8656       0.9540
   1413.79294       0.9113       0.9958    1413.79294       0.9113       0.9956
   1413.77769       0.9494       0.9641    1413.77769       0.9494       0.9639
   1413.76243       0.8751       1.0283    1413.76243       0.8751       1.0281
   1413.74717       0.9401       0.9779    1413.74717       0.9401       0.9777
   1413.73191       0.9553       0.9645    1413.73191       0.9553       0.9643
   1413.71665       0.9540       0.8853    1413.71665       0.9540       0.8851
   1413.70139       0.9432       0.8873    1413.70139       0.9432       0.8872
   1413.68613       0.9593       1.0513    1413.68613       0.9592       1.0511
   1413.67087       0.9331       0.9043    1413.67087       0.9331       0.9041
   1413.65562       0.8940       0.9159    1413.65562       0.8940       0.9157
   1413.64036       0.9714       0.9311    1413.64036       0.9713       0.9310
   1413.62510       0.9842       0.8843    1413.62510       0.9842       0.8842
   1413.60984       0.8749       0.8906    1413.60984       0.8748       0.8904
   1413.59458       0.9004       0.8757    1413.59458       0.9004       0.8755
   1413.57932       0.8558       0.8857    1413.57932       0.8558       0.8855
   1413.56406       0.8945       0.9277    1413.56406       0.8945       0.9275
   1413.54880       0.8727       0.8285    1413.54880       0.8727       0.8283
   1413.53354       0.9331       0.8711    1413.53354       0.9330       0.8709
   1413.51829       0.8262       0.8815    1413.51829       0.8262       0.8814
   1413.50303       1.0714       0.7964    1413.50303       1.0714       0.7962
   1413.48777       1.0208       0.8792    1413.48777       1.0208       0.8790
   1413.47251       0.9499       0.7905    1413.47251       0.9498       0.7904
   1413.45725       0.9125       0.8147    1413.45725       0.9125       0.8146
   1413.44199       0.8177       0.8458    1413.44199       0.8177       0.8457
   1413.42673       0.8711       0.8762    1413.42673       0.8711       0.8760
   1413.41147       0.9514       0.8467    1413.41147       0.9514       0.8466
   1413.39622       0.9949       0.7433    1413.39622       0.9948       0.7432
