#     FILENAME=Skynet_58945_M31_center_44909_54513.A.onoff.cal.txt
#     BASENAME=Skynet_58945_M31_center_44909_54513
#      CONTROL=SKYNET
#     PROJCODE=Skynet_58945_M31_center_44909
#     DATAROOT=/raid/scratch/cyborg/SkynetData
#      DATADIR=/raid/scratch/cyborg
#     DATADIR2=/raid/scratch/cyborg/SkynetData/Skynet_58945_M31_center_44909/C
#     SCANNAME=2020_03_09_19
#     SRC_NAME=M31_center
#     OBSERVER=unioncollege_21317
#     DATE_OBS=2020-04-06T10:37:35.410
#        OBSID=44909
#      SCANNUM=54513
#          MJD=58945.4427709
#          UTC=38255
#     SCANTYPE=onoff
#     DATAMODE=HIRES
#     RECEIVER=Rx1_2
#      OBSFREQ=1395.0000
# Actual_FREQ1=1423.0000,
# Actual_FREQ2=1423.0000
#    LO1Tuning=6873.0000
#     RFFILTER=1355_1435
#        OBSBW=-15.6250
#     EFFBANDW=15.6250
#        NCHAN=1024
#    STARTCHAN=51
#     STOPCHAN=972
#         TINT=0.3000
#         TBIN=0.00013107
#       ACCLEN=2048 
#     DURATION=170.70
#     EXPOSURE=125.68
#        FOCUS=36.895
#       RA,DEC=00:42:49.47, 41:16:05.68
#      RA(deg)=9.35542
#     DEC(deg)=41.26853
#   WIDTH(deg)=2.0556x0.0307
#    AZIM(deg)=52.9391
#    ELEV(deg)=21.2669
#     COORDREF=RA_DEC_
#         HREF=10.6846
#         VREF=41.2687
#      RADESYS=FK5
#       OFFSYS=RADEC
#      EQUINOX=2000.00
#     IFATTENS=21.00, 5.00
#   BALANCELEV=1.200 
#   POWER_XLYR=[0.23, 0.2] 
#       VELDEF=RADI-OBS 
#     VELOCITY=0.000 
#         NPOL=2 
#      POLMODE=Linear 
#      POLTYPE=XXYY 
#      WARNING=None 
#     NOISECAL=HI 
#       PRECAL=2 
#      POSTCAL=2 
#     CRYOTEMP=15 
#      BOXTEMP=23 
#         TSYS=XX1:39.30, YY1:39.85
#         TSYS=XX2:39.30, YY2:39.85
#         TCAL=XX1:9.18, YY1:10.14
#         TCAL=XX2:9.18, YY2:10.14
# Calibrated spectra: Tsys*(ON-OFF)/OFF 
#                
#                
#Freq1(MHz)         XX1          YY1   Freq2(MHz)       XX2         YY2 
   1430.03430       1.1225       1.3334    1430.03430       1.1225       1.3334
   1430.01904       1.1330       1.2140    1430.01904       1.1330       1.2140
   1430.00378       1.2647       1.2500    1430.00378       1.2647       1.2500
   1429.98853       1.0694       1.2495    1429.98853       1.0694       1.2495
   1429.97327       1.2470       1.2886    1429.97327       1.2469       1.2885
   1429.95801       1.1890       1.2668    1429.95801       1.1890       1.2667
   1429.94275       1.1043       1.2688    1429.94275       1.1043       1.2687
   1429.92749       1.2823       1.2182    1429.92749       1.2822       1.2181
   1429.91223       1.2213       1.2333    1429.91223       1.2212       1.2332
   1429.89697       1.1900       1.2251    1429.89697       1.1899       1.2251
   1429.88171       1.1588       1.1748    1429.88171       1.1588       1.1748
   1429.86646       1.1302       1.3092    1429.86646       1.1302       1.3091
   1429.85120       1.2094       1.2594    1429.85120       1.2094       1.2594
   1429.83594       1.1417       1.2628    1429.83594       1.1417       1.2627
   1429.82068       1.2701       1.3342    1429.82068       1.2700       1.3342
   1429.80542       1.1908       1.2485    1429.80542       1.1907       1.2485
   1429.79016       1.2233       1.2491    1429.79016       1.2233       1.2491
   1429.77490       1.0945       1.3226    1429.77490       1.0945       1.3225
   1429.75964       1.1472       1.1982    1429.75964       1.1472       1.1982
   1429.74438       1.1649       1.2728    1429.74438       1.1649       1.2728
   1429.72913       1.1961       1.2936    1429.72913       1.1961       1.2935
   1429.71387       1.1821       1.2488    1429.71387       1.1821       1.2488
   1429.69861       1.1562       1.1811    1429.69861       1.1561       1.1810
   1429.68335       1.2486       1.2578    1429.68335       1.2485       1.2578
   1429.66809       1.2563       1.1920    1429.66809       1.2563       1.1920
   1429.65283       1.1432       1.2045    1429.65283       1.1432       1.2044
   1429.63757       1.1742       1.3569    1429.63757       1.1742       1.3569
   1429.62231       1.2384       1.2239    1429.62231       1.2384       1.2238
   1429.60706       1.2495       1.2279    1429.60706       1.2495       1.2278
   1429.59180       1.2220       1.2200    1429.59180       1.2220       1.2200
   1429.57654       1.1351       1.2799    1429.57654       1.1351       1.2798
   1429.56128       1.0658       1.3701    1429.56128       1.0658       1.3700
   1429.54602       1.1145       1.2638    1429.54602       1.1144       1.2638
   1429.53076       1.1444       1.1716    1429.53076       1.1443       1.1715
   1429.51550       1.2267       1.3452    1429.51550       1.2267       1.3451
   1429.50024       1.1667       1.1577    1429.50024       1.1667       1.1576
   1429.48499       1.0792       1.3329    1429.48499       1.0791       1.3329
   1429.46973       1.0603       1.2731    1429.46973       1.0603       1.2731
   1429.45447       1.1233       1.3412    1429.45447       1.1233       1.3412
   1429.43921       1.2157       1.2488    1429.43921       1.2157       1.2488
   1429.42395       1.1485       1.2331    1429.42395       1.1485       1.2331
   1429.40869       1.1299       1.2248    1429.40869       1.1299       1.2248
   1429.39343       1.1866       1.1782    1429.39343       1.1866       1.1782
   1429.37817       1.1112       1.1921    1429.37817       1.1112       1.1920
   1429.36292       1.2661       1.1233    1429.36292       1.2660       1.1232
   1429.34766       1.2819       1.2293    1429.34766       1.2819       1.2293
   1429.33240       1.2872       1.2999    1429.33240       1.2872       1.2999
   1429.31714       1.1566       1.2008    1429.31714       1.1566       1.2007
   1429.30188       1.1684       1.2008    1429.30188       1.1683       1.2008
   1429.28662       1.1728       1.1911    1429.28662       1.1728       1.1911
   1429.27136       1.2064       1.2961    1429.27136       1.2063       1.2961
   1429.25610       1.1454       1.2173    1429.25610       1.1454       1.2172
   1429.24084       1.2847       1.3446    1429.24084       1.2847       1.3445
   1429.22559       1.1357       1.2678    1429.22559       1.1357       1.2678
   1429.21033       1.0122       1.2571    1429.21033       1.0122       1.2570
   1429.19507       1.1558       1.3171    1429.19507       1.1558       1.3170
   1429.17981       1.1332       1.2727    1429.17981       1.1332       1.2726
   1429.16455       1.0820       1.1738    1429.16455       1.0820       1.1737
   1429.14929       1.1354       1.3805    1429.14929       1.1354       1.3804
   1429.13403       1.1423       1.2369    1429.13403       1.1422       1.2368
   1429.11877       1.2549       1.3085    1429.11877       1.2549       1.3085
   1429.10352       1.1746       1.2470    1429.10352       1.1746       1.2470
   1429.08826       1.1381       1.2504    1429.08826       1.1381       1.2504
   1429.07300       1.2060       1.2779    1429.07300       1.2060       1.2779
   1429.05774       1.1683       1.3187    1429.05774       1.1683       1.3186
   1429.04248       1.1359       1.2924    1429.04248       1.1359       1.2924
   1429.02722       1.2463       1.2561    1429.02722       1.2463       1.2561
   1429.01196       1.2871       1.2634    1429.01196       1.2871       1.2634
   1428.99670       1.2307       1.1899    1428.99670       1.2307       1.1898
   1428.98145       1.2443       1.3021    1428.98145       1.2442       1.3021
   1428.96619       1.1109       1.2947    1428.96619       1.1109       1.2947
   1428.95093       1.1521       1.3163    1428.95093       1.1521       1.3163
   1428.93567       1.1202       1.1711    1428.93567       1.1201       1.1711
   1428.92041       1.1407       1.2501    1428.92041       1.1406       1.2500
   1428.90515       1.2812       1.2955    1428.90515       1.2812       1.2955
   1428.88989       1.1973       1.2581    1428.88989       1.1973       1.2580
   1428.87463       1.2431       1.3145    1428.87463       1.2431       1.3144
   1428.85938       1.0549       1.2668    1428.85938       1.0548       1.2667
   1428.84412       1.1449       1.3156    1428.84412       1.1448       1.3155
   1428.82886       1.1877       1.1525    1428.82886       1.1877       1.1525
   1428.81360       1.1182       1.2657    1428.81360       1.1182       1.2657
   1428.79834       1.1553       1.3585    1428.79834       1.1553       1.3584
   1428.78308       1.1252       1.2722    1428.78308       1.1252       1.2722
   1428.76782       1.2732       1.2716    1428.76782       1.2731       1.2715
   1428.75256       1.0945       1.2722    1428.75256       1.0945       1.2722
   1428.73730       1.2028       1.3093    1428.73730       1.2027       1.3093
   1428.72205       1.1915       1.3302    1428.72205       1.1914       1.3301
   1428.70679       1.2094       1.1775    1428.70679       1.2093       1.1775
   1428.69153       1.0304       1.2293    1428.69153       1.0304       1.2293
   1428.67627       1.2623       1.3492    1428.67627       1.2623       1.3491
   1428.66101       1.1931       1.3524    1428.66101       1.1931       1.3524
   1428.64575       1.1142       1.3342    1428.64575       1.1141       1.3342
   1428.63049       1.1527       1.2352    1428.63049       1.1527       1.2352
   1428.61523       1.1834       1.3095    1428.61523       1.1833       1.3094
   1428.59998       1.1128       1.2228    1428.59998       1.1128       1.2227
   1428.58472       1.2632       1.3415    1428.58472       1.2632       1.3415
   1428.56946       1.1585       1.3106    1428.56946       1.1584       1.3106
   1428.55420       1.1226       1.3301    1428.55420       1.1226       1.3300
   1428.53894       1.1588       1.2298    1428.53894       1.1588       1.2297
   1428.52368       1.2018       1.3014    1428.52368       1.2018       1.3013
   1428.50842       1.1733       1.2742    1428.50842       1.1732       1.2741
   1428.49316       1.0789       1.2623    1428.49316       1.0789       1.2623
   1428.47791       1.1174       1.2767    1428.47791       1.1173       1.2766
   1428.46265       1.1275       1.3018    1428.46265       1.1275       1.3017
   1428.44739       1.1809       1.3323    1428.44739       1.1808       1.3322
   1428.43213       1.1575       1.3675    1428.43213       1.1575       1.3675
   1428.41687       1.1410       1.3485    1428.41687       1.1410       1.3485
   1428.40161       1.1554       1.2868    1428.40161       1.1553       1.2868
   1428.38635       1.1805       1.3542    1428.38635       1.1804       1.3542
   1428.37109       1.1426       1.2556    1428.37109       1.1426       1.2556
   1428.35583       1.2093       1.3259    1428.35583       1.2093       1.3259
   1428.34058       1.1432       1.3226    1428.34058       1.1432       1.3226
   1428.32532       1.1719       1.3895    1428.32532       1.1719       1.3894
   1428.31006       1.2171       1.3301    1428.31006       1.2171       1.3300
   1428.29480       1.1054       1.3274    1428.29480       1.1054       1.3273
   1428.27954       1.2289       1.3531    1428.27954       1.2289       1.3531
   1428.26428       1.1599       1.4174    1428.26428       1.1598       1.4173
   1428.24902       1.1260       1.3985    1428.24902       1.1259       1.3984
   1428.23376       1.2961       1.3907    1428.23376       1.2961       1.3907
   1428.21851       1.1740       1.2670    1428.21851       1.1740       1.2669
   1428.20325       1.0429       1.3145    1428.20325       1.0428       1.3144
   1428.18799       1.2062       1.3809    1428.18799       1.2061       1.3808
   1428.17273       1.1476       1.3289    1428.17273       1.1475       1.3289
   1428.15747       1.1778       1.2747    1428.15747       1.1777       1.2747
   1428.14221       1.2577       1.3772    1428.14221       1.2577       1.3771
   1428.12695       1.1798       1.3730    1428.12695       1.1797       1.3729
   1428.11169       1.1926       1.2675    1428.11169       1.1926       1.2675
   1428.09644       1.1764       1.3130    1428.09644       1.1764       1.3130
   1428.08118       1.0791       1.4039    1428.08118       1.0790       1.4038
   1428.06592       1.1353       1.3725    1428.06592       1.1353       1.3725
   1428.05066       1.1513       1.3917    1428.05066       1.1512       1.3917
   1428.03540       1.2094       1.3795    1428.03540       1.2093       1.3794
   1428.02014       1.0683       1.3443    1428.02014       1.0683       1.3442
   1428.00488       1.0684       1.3498    1428.00488       1.0684       1.3497
   1427.98962       1.1347       1.3555    1427.98962       1.1346       1.3554
   1427.97437       1.1963       1.3767    1427.97437       1.1963       1.3767
   1427.95911       1.1561       1.3087    1427.95911       1.1561       1.3087
   1427.94385       1.1747       1.3143    1427.94385       1.1747       1.3142
   1427.92859       1.1800       1.3322    1427.92859       1.1800       1.3322
   1427.91333       1.2286       1.2993    1427.91333       1.2286       1.2992
   1427.89807       1.1047       1.3451    1427.89807       1.1046       1.3450
   1427.88281       1.2710       1.4025    1427.88281       1.2710       1.4025
   1427.86755       1.1449       1.3506    1427.86755       1.1449       1.3506
   1427.85229       1.2216       1.3694    1427.85229       1.2216       1.3693
   1427.83704       1.1560       1.3558    1427.83704       1.1560       1.3557
   1427.82178       1.1005       1.4277    1427.82178       1.1005       1.4277
   1427.80652       1.0798       1.3836    1427.80652       1.0798       1.3835
   1427.79126       1.1526       1.3413    1427.79126       1.1526       1.3413
   1427.77600       1.0575       1.4241    1427.77600       1.0574       1.4241
   1427.76074       1.1511       1.3625    1427.76074       1.1511       1.3624
   1427.74548       1.1782       1.2929    1427.74548       1.1782       1.2928
   1427.73022       1.0433       1.3465    1427.73022       1.0433       1.3464
   1427.71497       1.1850       1.3338    1427.71497       1.1850       1.3338
   1427.69971       1.0948       1.3658    1427.69971       1.0948       1.3657
   1427.68445       1.0823       1.3851    1427.68445       1.0822       1.3851
   1427.66919       1.1737       1.3167    1427.66919       1.1736       1.3167
   1427.65393       1.0756       1.3054    1427.65393       1.0756       1.3053
   1427.63867       1.1192       1.3692    1427.63867       1.1191       1.3692
   1427.62341       1.1890       1.3988    1427.62341       1.1890       1.3987
   1427.60815       1.0612       1.2904    1427.60815       1.0612       1.2903
   1427.59290       1.0344       1.3685    1427.59290       1.0344       1.3684
   1427.57764       1.0260       1.3337    1427.57764       1.0260       1.3337
   1427.56238       1.1055       1.4099    1427.56238       1.1055       1.4098
   1427.54712       0.9983       1.4053    1427.54712       0.9983       1.4053
   1427.53186       1.1490       1.3899    1427.53186       1.1490       1.3898
   1427.51660       1.1400       1.3881    1427.51660       1.1400       1.3880
   1427.50134       1.1903       1.3378    1427.50134       1.1903       1.3378
   1427.48608       1.0598       1.3728    1427.48608       1.0597       1.3727
   1427.47083       1.0576       1.4079    1427.47083       1.0576       1.4078
   1427.45557       1.1098       1.3959    1427.45557       1.1098       1.3958
   1427.44031       1.0356       1.3806    1427.44031       1.0356       1.3805
   1427.42505       1.0675       1.4191    1427.42505       1.0675       1.4191
   1427.40979       1.0744       1.4521    1427.40979       1.0744       1.4520
   1427.39453       1.0488       1.3581    1427.39453       1.0488       1.3580
   1427.37927       1.0844       1.3800    1427.37927       1.0844       1.3800
   1427.36401       1.1648       1.3476    1427.36401       1.1647       1.3475
   1427.34875       1.1118       1.2791    1427.34875       1.1118       1.2790
   1427.33350       1.1391       1.4070    1427.33350       1.1391       1.4069
   1427.31824       1.0626       1.3877    1427.31824       1.0626       1.3877
   1427.30298       1.0892       1.4266    1427.30298       1.0892       1.4266
   1427.28772       1.0821       1.4709    1427.28772       1.0821       1.4708
   1427.27246       1.1234       1.3349    1427.27246       1.1233       1.3349
   1427.25720       1.1428       1.4681    1427.25720       1.1428       1.4680
   1427.24194       1.0638       1.4344    1427.24194       1.0637       1.4343
   1427.22668       1.1090       1.4600    1427.22668       1.1090       1.4599
   1427.21143       1.0171       1.4761    1427.21143       1.0171       1.4761
   1427.19617       1.0410       1.3418    1427.19617       1.0409       1.3417
   1427.18091       1.0641       1.3962    1427.18091       1.0641       1.3962
   1427.16565       0.9621       1.3994    1427.16565       0.9621       1.3993
   1427.15039       1.1375       1.4290    1427.15039       1.1375       1.4289
   1427.13513       1.1000       1.3415    1427.13513       1.1000       1.3414
   1427.11987       1.1535       1.4912    1427.11987       1.1535       1.4911
   1427.10461       1.0686       1.3692    1427.10461       1.0686       1.3692
   1427.08936       1.0307       1.3873    1427.08936       1.0307       1.3872
   1427.07410       1.1146       1.5180    1427.07410       1.1146       1.5179
   1427.05884       1.0442       1.4079    1427.05884       1.0442       1.4078
   1427.04358       1.0744       1.4268    1427.04358       1.0744       1.4268
   1427.02832       1.0520       1.4120    1427.02832       1.0520       1.4120
   1427.01306       1.0922       1.4551    1427.01306       1.0921       1.4551
   1426.99780       1.0332       1.4585    1426.99780       1.0331       1.4584
   1426.98254       1.0181       1.3696    1426.98254       1.0180       1.3695
   1426.96729       1.0038       1.4029    1426.96729       1.0038       1.4028
   1426.95203       1.0270       1.5111    1426.95203       1.0270       1.5110
   1426.93677       1.0033       1.4164    1426.93677       1.0033       1.4164
   1426.92151       1.1541       1.3556    1426.92151       1.1541       1.3555
   1426.90625       1.0664       1.4479    1426.90625       1.0663       1.4478
   1426.89099       1.0723       1.3965    1426.89099       1.0723       1.3964
   1426.87573       1.0861       1.3924    1426.87573       1.0861       1.3923
   1426.86047       1.1125       1.4628    1426.86047       1.1125       1.4628
   1426.84521       0.9840       1.4912    1426.84521       0.9839       1.4911
   1426.82996       1.0766       1.4735    1426.82996       1.0765       1.4734
   1426.81470       0.9542       1.5124    1426.81470       0.9542       1.5123
   1426.79944       0.9836       1.4236    1426.79944       0.9835       1.4236
   1426.78418       1.0627       1.3977    1426.78418       1.0626       1.3976
   1426.76892       1.1179       1.5092    1426.76892       1.1178       1.5092
   1426.75366       1.1018       1.4992    1426.75366       1.1017       1.4991
   1426.73840       1.0622       1.4502    1426.73840       1.0622       1.4502
   1426.72314       1.0597       1.4518    1426.72314       1.0597       1.4518
   1426.70789       1.0453       1.4800    1426.70789       1.0452       1.4800
   1426.69263       1.1081       1.5215    1426.69263       1.1081       1.5215
   1426.67737       1.0489       1.4619    1426.67737       1.0489       1.4618
   1426.66211       1.4227       1.4073    1426.66211       1.4227       1.4073
   1426.64685       0.9625       1.4024    1426.64685       0.9624       1.4023
   1426.63159       1.0667       1.4618    1426.63159       1.0666       1.4618
   1426.61633       1.0332       1.3566    1426.61633       1.0331       1.3565
   1426.60107       0.9948       1.4935    1426.60107       0.9947       1.4934
   1426.58582       1.1303       1.4194    1426.58582       1.1303       1.4193
   1426.57056       0.9824       1.4876    1426.57056       0.9824       1.4876
   1426.55530       1.0734       1.4003    1426.55530       1.0734       1.4003
   1426.54004       1.0853       1.4226    1426.54004       1.0853       1.4225
   1426.52478       1.0695       1.4217    1426.52478       1.0695       1.4217
   1426.50952       1.1271       1.3389    1426.50952       1.1271       1.3389
   1426.49426       1.1304       1.5013    1426.49426       1.1304       1.5013
   1426.47900       1.1033       1.3862    1426.47900       1.1033       1.3861
   1426.46375       1.0000       1.4622    1426.46375       1.0000       1.4622
   1426.44849       1.0077       1.4197    1426.44849       1.0077       1.4196
   1426.43323       1.0267       1.4540    1426.43323       1.0267       1.4539
   1426.41797       1.0466       1.5098    1426.41797       1.0465       1.5098
   1426.40271       1.1267       1.4270    1426.40271       1.1267       1.4269
   1426.38745       1.1493       1.4359    1426.38745       1.1492       1.4358
   1426.37219       1.1033       1.4396    1426.37219       1.1032       1.4395
   1426.35693       1.1165       1.3300    1426.35693       1.1165       1.3299
   1426.34167       1.0562       1.4315    1426.34167       1.0561       1.4314
   1426.32642       1.0734       1.4348    1426.32642       1.0734       1.4347
   1426.31116       1.1018       1.4966    1426.31116       1.1018       1.4965
   1426.29590       1.1380       1.4877    1426.29590       1.1379       1.4876
   1426.28064       1.1128       1.4184    1426.28064       1.1127       1.4183
   1426.26538       1.1033       1.4221    1426.26538       1.1033       1.4220
   1426.25012       1.1165       1.4268    1426.25012       1.1165       1.4267
   1426.23486       1.1633       1.4298    1426.23486       1.1632       1.4297
   1426.21960       1.1134       1.4526    1426.21960       1.1134       1.4525
   1426.20435       1.0795       1.4832    1426.20435       1.0794       1.4832
   1426.18909       1.2139       1.5997    1426.18909       1.2139       1.5996
   1426.17383       1.1489       1.4410    1426.17383       1.1489       1.4409
   1426.15857       1.0064       1.4850    1426.15857       1.0063       1.4849
   1426.14331       1.1783       1.4005    1426.14331       1.1782       1.4005
   1426.12805       1.1427       1.3846    1426.12805       1.1426       1.3845
   1426.11279       1.1662       1.4599    1426.11279       1.1661       1.4598
   1426.09753       1.1289       1.5027    1426.09753       1.1289       1.5027
   1426.08228       1.1464       1.5122    1426.08228       1.1464       1.5121
   1426.06702       1.1800       1.4778    1426.06702       1.1800       1.4777
   1426.05176       1.1851       1.4936    1426.05176       1.1850       1.4935
   1426.03650       1.1810       1.3644    1426.03650       1.1809       1.3644
   1426.02124       1.1913       1.4135    1426.02124       1.1912       1.4135
   1426.00598       1.1641       1.3924    1426.00598       1.1641       1.3923
   1425.99072       1.1397       1.4368    1425.99072       1.1397       1.4367
   1425.97546       1.0994       1.3624    1425.97546       1.0994       1.3623
   1425.96021       1.1445       1.5015    1425.96021       1.1444       1.5014
   1425.94495       1.0955       1.4650    1425.94495       1.0954       1.4649
   1425.92969       1.0532       1.2899    1425.92969       1.0532       1.2898
   1425.91443       1.1187       1.5002    1425.91443       1.1187       1.5001
   1425.89917       1.1604       1.4358    1425.89917       1.1604       1.4358
   1425.88391       1.0491       1.4260    1425.88391       1.0491       1.4260
   1425.86865       1.1905       1.4668    1425.86865       1.1905       1.4668
   1425.85339       1.1528       1.4221    1425.85339       1.1528       1.4221
   1425.83813       1.1771       1.4359    1425.83813       1.1771       1.4359
   1425.82288       1.1892       1.3602    1425.82288       1.1892       1.3602
   1425.80762       1.1820       1.4188    1425.80762       1.1820       1.4187
   1425.79236       1.1261       1.3743    1425.79236       1.1261       1.3742
   1425.77710       1.1812       1.3031    1425.77710       1.1811       1.3030
   1425.76184       1.1326       1.4073    1425.76184       1.1326       1.4073
   1425.74658       1.1986       1.4736    1425.74658       1.1986       1.4735
   1425.73132       1.1536       1.3917    1425.73132       1.1536       1.3917
   1425.71606       1.1092       1.4394    1425.71606       1.1092       1.4394
   1425.70081       1.1487       1.4809    1425.70081       1.1487       1.4808
   1425.68555       1.0918       1.4150    1425.68555       1.0918       1.4149
   1425.67029       1.2031       1.5117    1425.67029       1.2031       1.5117
   1425.65503       1.1661       1.4358    1425.65503       1.1661       1.4358
   1425.63977       1.1265       1.4835    1425.63977       1.1265       1.4835
   1425.62451       1.1927       1.4494    1425.62451       1.1927       1.4493
   1425.60925       1.2027       1.4721    1425.60925       1.2027       1.4720
   1425.59399       1.2815       1.3804    1425.59399       1.2815       1.3803
   1425.57874       1.1935       1.4224    1425.57874       1.1935       1.4223
   1425.56348       1.1080       1.4467    1425.56348       1.1080       1.4467
   1425.54822       1.1903       1.4397    1425.54822       1.1902       1.4396
   1425.53296       1.1328       1.4148    1425.53296       1.1328       1.4147
   1425.51770       1.2296       1.3335    1425.51770       1.2295       1.3335
   1425.50244       1.2018       1.3646    1425.50244       1.2018       1.3646
   1425.48718       1.1521       1.5260    1425.48718       1.1521       1.5259
   1425.47192       1.1559       1.4875    1425.47192       1.1559       1.4874
   1425.45667       1.1616       1.3677    1425.45667       1.1616       1.3676
   1425.44141       1.0440       1.3749    1425.44141       1.0439       1.3748
   1425.42615       1.1330       1.4432    1425.42615       1.1329       1.4432
   1425.41089       1.1008       1.3738    1425.41089       1.1008       1.3737
   1425.39563       1.0796       1.5045    1425.39563       1.0795       1.5044
   1425.38037       1.2053       1.3651    1425.38037       1.2053       1.3651
   1425.36511       1.2075       1.3603    1425.36511       1.2074       1.3602
   1425.34985       1.2026       1.3189    1425.34985       1.2025       1.3189
   1425.33459       1.1868       1.3413    1425.33459       1.1868       1.3413
   1425.31934       1.2043       1.4047    1425.31934       1.2043       1.4046
   1425.30408       1.2525       1.4551    1425.30408       1.2525       1.4550
   1425.28882       1.2204       1.4761    1425.28882       1.2203       1.4760
   1425.27356       1.0847       1.3764    1425.27356       1.0846       1.3763
   1425.25830       1.2155       1.4186    1425.25830       1.2155       1.4185
   1425.24304       1.2334       1.4076    1425.24304       1.2334       1.4076
   1425.22778       1.1746       1.3576    1425.22778       1.1745       1.3576
   1425.21252       1.1799       1.4276    1425.21252       1.1799       1.4276
   1425.19727       1.1039       1.3638    1425.19727       1.1039       1.3637
   1425.18201       1.2193       1.3206    1425.18201       1.2193       1.3205
   1425.16675       1.2917       1.2986    1425.16675       1.2917       1.2986
   1425.15149       1.1677       1.4789    1425.15149       1.1676       1.4789
   1425.13623       1.2017       1.3902    1425.13623       1.2017       1.3902
   1425.12097       1.3113       1.4082    1425.12097       1.3112       1.4081
   1425.10571       1.2280       1.4529    1425.10571       1.2280       1.4529
   1425.09045       1.2188       1.4386    1425.09045       1.2187       1.4386
   1425.07520       1.2774       1.3742    1425.07520       1.2774       1.3741
   1425.05994       1.1807       1.4297    1425.05994       1.1806       1.4297
   1425.04468       1.1002       1.3127    1425.04468       1.1002       1.3127
   1425.02942       1.1896       1.4308    1425.02942       1.1896       1.4307
   1425.01416       1.1664       1.4537    1425.01416       1.1664       1.4537
   1424.99890       1.2394       1.4441    1424.99890       1.2394       1.4441
   1424.98364       1.2216       1.3140    1424.98364       1.2216       1.3140
   1424.96838       1.1082       1.4451    1424.96838       1.1081       1.4450
   1424.95312       1.2187       1.3607    1424.95312       1.2186       1.3606
   1424.93787       1.2176       1.4261    1424.93787       1.2176       1.4260
   1424.92261       1.2627       1.4187    1424.92261       1.2627       1.4187
   1424.90735       1.2302       1.2918    1424.90735       1.2301       1.2918
   1424.89209       1.2832       1.3265    1424.89209       1.2832       1.3264
   1424.87683       1.1761       1.4158    1424.87683       1.1761       1.4158
   1424.86157       1.1603       1.3745    1424.86157       1.1603       1.3745
   1424.84631       1.1909       1.3619    1424.84631       1.1908       1.3618
   1424.83105       1.2335       1.3395    1424.83105       1.2334       1.3395
   1424.81580       1.1865       1.3217    1424.81580       1.1864       1.3217
   1424.80054       1.2046       1.3509    1424.80054       1.2046       1.3508
   1424.78528       1.2717       1.4088    1424.78528       1.2717       1.4088
   1424.77002       1.2189       1.3207    1424.77002       1.2189       1.3207
   1424.75476       1.2496       1.5053    1424.75476       1.2496       1.5053
   1424.73950       1.1908       1.3258    1424.73950       1.1907       1.3258
   1424.72424       1.2137       1.3278    1424.72424       1.2136       1.3278
   1424.70898       1.2012       1.3615    1424.70898       1.2012       1.3614
   1424.69373       1.2395       1.4252    1424.69373       1.2395       1.4251
   1424.67847       1.1342       1.3515    1424.67847       1.1342       1.3514
   1424.66321       1.1108       1.3649    1424.66321       1.1108       1.3649
   1424.64795       1.2261       1.3269    1424.64795       1.2261       1.3268
   1424.63269       1.1588       1.4433    1424.63269       1.1588       1.4433
   1424.61743       1.1953       1.4043    1424.61743       1.1952       1.4042
   1424.60217       1.1872       1.3410    1424.60217       1.1871       1.3409
   1424.58691       1.1525       1.3082    1424.58691       1.1525       1.3081
   1424.57166       1.2428       1.3536    1424.57166       1.2428       1.3535
   1424.55640       1.1463       1.3001    1424.55640       1.1462       1.3000
   1424.54114       1.2222       1.3557    1424.54114       1.2221       1.3557
   1424.52588       1.2713       1.3514    1424.52588       1.2712       1.3513
   1424.51062       1.2221       1.3572    1424.51062       1.2221       1.3571
   1424.49536       1.2112       1.3305    1424.49536       1.2111       1.3304
   1424.48010       1.2019       1.2918    1424.48010       1.2019       1.2917
   1424.46484       1.1926       1.2898    1424.46484       1.1926       1.2898
   1424.44958       1.2325       1.3208    1424.44958       1.2324       1.3207
   1424.43433       1.1586       1.3458    1424.43433       1.1586       1.3457
   1424.41907       1.2174       1.3606    1424.41907       1.2173       1.3606
   1424.40381       1.1221       1.2953    1424.40381       1.1220       1.2953
   1424.38855       1.0259       1.3471    1424.38855       1.0259       1.3471
   1424.37329       1.1118       1.3822    1424.37329       1.1117       1.3822
   1424.35803       1.1006       1.3519    1424.35803       1.1006       1.3518
   1424.34277       1.1504       1.2712    1424.34277       1.1503       1.2711
   1424.32751       1.2339       1.3451    1424.32751       1.2339       1.3451
   1424.31226       1.1308       1.2859    1424.31226       1.1307       1.2858
   1424.29700       1.1685       1.2838    1424.29700       1.1684       1.2837
   1424.28174       1.2639       1.2906    1424.28174       1.2638       1.2906
   1424.26648       1.2212       1.4112    1424.26648       1.2212       1.4111
   1424.25122       1.1962       1.4318    1424.25122       1.1961       1.4317
   1424.23596       1.1922       1.3856    1424.23596       1.1921       1.3855
   1424.22070       1.0864       1.3302    1424.22070       1.0864       1.3301
   1424.20544       1.1414       1.3136    1424.20544       1.1414       1.3136
   1424.19019       1.0717       1.2241    1424.19019       1.0717       1.2241
   1424.17493       1.1629       1.2188    1424.17493       1.1628       1.2187
   1424.15967       1.1451       1.3413    1424.15967       1.1451       1.3412
   1424.14441       1.1478       1.3827    1424.14441       1.1478       1.3827
   1424.12915       1.0448       1.3666    1424.12915       1.0448       1.3665
   1424.11389       1.1887       1.2998    1424.11389       1.1886       1.2997
   1424.09863       1.1939       1.3146    1424.09863       1.1939       1.3146
   1424.08337       1.1097       1.2315    1424.08337       1.1096       1.2315
   1424.06812       1.0970       1.4050    1424.06812       1.0969       1.4049
   1424.05286       1.0896       1.2592    1424.05286       1.0896       1.2591
   1424.03760       1.1364       1.2336    1424.03760       1.1364       1.2335
   1424.02234       1.0144       1.2800    1424.02234       1.0144       1.2799
   1424.00708       1.1663       1.2791    1424.00708       1.1662       1.2790
   1423.99182       1.0947       1.3304    1423.99182       1.0947       1.3303
   1423.97656       1.1058       1.2989    1423.97656       1.1057       1.2988
   1423.96130       1.0263       1.2804    1423.96130       1.0263       1.2803
   1423.94604       1.1140       1.2688    1423.94604       1.1139       1.2688
   1423.93079       1.0701       1.3285    1423.93079       1.0701       1.3284
   1423.91553       1.1187       1.2604    1423.91553       1.1187       1.2604
   1423.90027       1.0072       1.3598    1423.90027       1.0072       1.3597
   1423.88501       0.9987       1.2182    1423.88501       0.9986       1.2181
   1423.86975       1.0618       1.2239    1423.86975       1.0618       1.2239
   1423.85449       1.0025       1.2494    1423.85449       1.0024       1.2493
   1423.83923       1.1639       1.2769    1423.83923       1.1638       1.2768
   1423.82397       1.1199       1.2925    1423.82397       1.1199       1.2925
   1423.80872       1.1355       1.3071    1423.80872       1.1355       1.3070
   1423.79346       1.1333       1.2264    1423.79346       1.1332       1.2263
   1423.77820       1.0367       1.2822    1423.77820       1.0367       1.2821
   1423.76294       1.0478       1.2708    1423.76294       1.0478       1.2707
   1423.74768       1.0429       1.2523    1423.74768       1.0429       1.2522
   1423.73242       1.1201       1.2874    1423.73242       1.1201       1.2874
   1423.71716       0.9714       1.2559    1423.71716       0.9714       1.2559
   1423.70190       1.0478       1.3278    1423.70190       1.0478       1.3277
   1423.68665       1.0434       1.3675    1423.68665       1.0433       1.3674
   1423.67139       1.0591       1.3649    1423.67139       1.0591       1.3649
   1423.65613       1.0645       1.2821    1423.65613       1.0644       1.2820
   1423.64087       1.0803       1.2050    1423.64087       1.0803       1.2049
   1423.62561       1.1054       1.1784    1423.62561       1.1054       1.1784
   1423.61035       1.1021       1.2641    1423.61035       1.1020       1.2641
   1423.59509       1.0673       1.3366    1423.59509       1.0673       1.3366
   1423.57983       1.0545       1.2980    1423.57983       1.0545       1.2980
   1423.56458       1.0924       1.2810    1423.56458       1.0924       1.2810
   1423.54932       0.9592       1.3399    1423.54932       0.9591       1.3398
   1423.53406       1.0333       1.3427    1423.53406       1.0332       1.3426
   1423.51880       1.0028       1.2530    1423.51880       1.0028       1.2530
   1423.50354       0.9901       1.2951    1423.50354       0.9901       1.2951
   1423.48828       1.0000       1.2951    1423.48828       1.0000       1.2951
   1423.47302       0.9608       1.2825    1423.47302       0.9608       1.2824
   1423.45776       1.0178       1.2161    1423.45776       1.0177       1.2161
   1423.44250       0.9741       1.1840    1423.44250       0.9740       1.1839
   1423.42725       0.9621       1.3260    1423.42725       0.9620       1.3260
   1423.41199       0.9747       1.2649    1423.41199       0.9747       1.2648
   1423.39673       0.9838       1.2889    1423.39673       0.9837       1.2889
   1423.38147       1.0439       1.2034    1423.38147       1.0439       1.2034
   1423.36621       0.9731       1.2304    1423.36621       0.9731       1.2303
   1423.35095       1.0163       1.1797    1423.35095       1.0163       1.1796
   1423.33569       1.0461       1.1504    1423.33569       1.0461       1.1504
   1423.32043       1.0081       1.2234    1423.32043       1.0081       1.2233
   1423.30518       0.9829       1.2875    1423.30518       0.9829       1.2874
   1423.28992       1.0147       1.2352    1423.28992       1.0147       1.2351
   1423.27466       0.9301       1.2107    1423.27466       0.9300       1.2106
   1423.25940       0.9294       1.2097    1423.25940       0.9294       1.2096
   1423.24414       1.0018       1.2969    1423.24414       1.0018       1.2969
   1423.22888       0.9574       1.1721    1423.22888       0.9574       1.1720
   1423.21362       1.0468       1.2934    1423.21362       1.0468       1.2933
   1423.19836       1.0194       1.3001    1423.19836       1.0194       1.3001
   1423.18311       0.9725       1.3557    1423.18311       0.9725       1.3556
   1423.16785       1.0050       1.3066    1423.16785       1.0050       1.3065
   1423.15259       0.9147       1.2601    1423.15259       0.9146       1.2600
   1423.13733       1.0291       1.2596    1423.13733       1.0291       1.2596
   1423.12207       0.9846       1.2757    1423.12207       0.9846       1.2757
   1423.10681       0.9900       1.3078    1423.10681       0.9900       1.3078
   1423.09155       0.9637       1.3389    1423.09155       0.9636       1.3388
   1423.07629       1.0090       1.2530    1423.07629       1.0090       1.2530
   1423.06104       1.0928       1.2741    1423.06104       1.0927       1.2740
   1423.04578       1.0037       1.2481    1423.04578       1.0037       1.2481
   1423.03052       1.0741       1.2589    1423.03052       1.0741       1.2588
   1423.01526       1.2413       1.5940    1423.01526       1.2413       1.5939
   1423.00000       1.1858       1.6910    1423.00000       1.1858       1.6909
   1422.98474       1.1109       1.7881    1422.98474       1.1108       1.7880
   1422.96948       1.0489       1.3370    1422.96948       1.0488       1.3369
   1422.95422       1.1336       1.4846    1422.95422       1.1335       1.4845
   1422.93896       1.1807       1.3623    1422.93896       1.1807       1.3623
   1422.92371       1.2008       1.4487    1422.92371       1.2008       1.4486
   1422.90845       1.1573       1.4897    1422.90845       1.1573       1.4896
   1422.89319       1.2117       1.5025    1422.89319       1.2116       1.5025
   1422.87793       1.1530       1.5666    1422.87793       1.1530       1.5666
   1422.86267       1.1792       1.5971    1422.86267       1.1791       1.5970
   1422.84741       1.3045       1.6005    1422.84741       1.3045       1.6005
   1422.83215       1.3458       1.5897    1422.83215       1.3457       1.5896
   1422.81689       1.2059       1.5799    1422.81689       1.2058       1.5798
   1422.80164       1.1643       1.4964    1422.80164       1.1643       1.4964
   1422.78638       1.1498       1.4630    1422.78638       1.1498       1.4630
   1422.77112       1.1853       1.5805    1422.77112       1.1852       1.5805
   1422.75586       1.1828       1.4015    1422.75586       1.1828       1.4014
   1422.74060       1.1953       1.5430    1422.74060       1.1952       1.5429
   1422.72534       1.1969       1.5936    1422.72534       1.1969       1.5935
   1422.71008       1.0842       1.4482    1422.71008       1.0841       1.4481
   1422.69482       1.1666       1.5465    1422.69482       1.1666       1.5465
   1422.67957       1.1688       1.5927    1422.67957       1.1688       1.5927
   1422.66431       1.1982       1.5216    1422.66431       1.1981       1.5215
   1422.64905       1.1402       1.5827    1422.64905       1.1402       1.5826
   1422.63379       1.2126       1.5561    1422.63379       1.2125       1.5561
   1422.61853       1.1535       1.6055    1422.61853       1.1535       1.6054
   1422.60327       1.2498       1.6071    1422.60327       1.2498       1.6070
   1422.58801       1.2203       1.6459    1422.58801       1.2202       1.6459
   1422.57275       1.2481       1.6545    1422.57275       1.2481       1.6545
   1422.55750       1.3213       1.6477    1422.55750       1.3212       1.6476
   1422.54224       1.4573       1.6273    1422.54224       1.4573       1.6273
   1422.52698       1.4377       1.6880    1422.52698       1.4376       1.6880
   1422.51172       1.3183       1.7609    1422.51172       1.3183       1.7609
   1422.49646       1.4790       1.8138    1422.49646       1.4789       1.8138
   1422.48120       1.4506       1.7837    1422.48120       1.4505       1.7836
   1422.46594       1.4656       1.8015    1422.46594       1.4656       1.8015
   1422.45068       1.4480       1.8440    1422.45068       1.4480       1.8439
   1422.43542       1.5186       1.8500    1422.43542       1.5185       1.8500
   1422.42017       1.5526       1.9853    1422.42017       1.5526       1.9852
   1422.40491       1.5424       2.0248    1422.40491       1.5424       2.0247
   1422.38965       1.6859       2.0228    1422.38965       1.6858       2.0227
   1422.37439       1.6406       2.0045    1422.37439       1.6406       2.0045
   1422.35913       1.6781       2.1166    1422.35913       1.6780       2.1165
   1422.34387       1.7294       2.1606    1422.34387       1.7293       2.1605
   1422.32861       1.8195       2.2110    1422.32861       1.8194       2.2109
   1422.31335       1.9150       2.2174    1422.31335       1.9149       2.2173
   1422.29810       1.9722       2.3195    1422.29810       1.9722       2.3194
   1422.28284       1.9936       2.3798    1422.28284       1.9935       2.3797
   1422.26758       2.0181       2.4611    1422.26758       2.0180       2.4610
   1422.25232       2.0400       2.5311    1422.25232       2.0400       2.5309
   1422.23706       2.1360       2.3220    1422.23706       2.1359       2.3219
   1422.22180       2.1691       2.5289    1422.22180       2.1690       2.5288
   1422.20654       2.3294       2.6929    1422.20654       2.3293       2.6928
   1422.19128       2.3146       2.7488    1422.19128       2.3146       2.7487
   1422.17603       2.4552       2.7366    1422.17603       2.4551       2.7364
   1422.16077       2.6140       2.8045    1422.16077       2.6140       2.8044
   1422.14551       2.5937       2.9195    1422.14551       2.5936       2.9193
   1422.13025       2.5891       3.0032    1422.13025       2.5890       3.0031
   1422.11499       2.5817       2.9439    1422.11499       2.5816       2.9438
   1422.09973       2.7944       3.0388    1422.09973       2.7943       3.0387
   1422.08447       2.7482       2.9451    1422.08447       2.7481       2.9450
   1422.06921       2.7211       3.0608    1422.06921       2.7210       3.0607
   1422.05396       2.8728       3.1152    1422.05396       2.8727       3.1151
   1422.03870       3.0229       3.2294    1422.03870       3.0228       3.2292
   1422.02344       3.0592       3.3646    1422.02344       3.0591       3.3644
   1422.00818       3.2168       3.4136    1422.00818       3.2167       3.4135
   1421.99292       3.3677       3.4317    1421.99292       3.3675       3.4316
   1421.97766       3.2655       3.5600    1421.97766       3.2654       3.5598
   1421.96240       3.3481       3.5203    1421.96240       3.3480       3.5202
   1421.94714       3.4722       3.6565    1421.94714       3.4721       3.6564
   1421.93188       3.5463       3.7877    1421.93188       3.5462       3.7876
   1421.91663       3.6682       3.7598    1421.91663       3.6680       3.7596
   1421.90137       3.6053       3.7770    1421.90137       3.6052       3.7768
   1421.88611       3.7006       3.7979    1421.88611       3.7005       3.7977
   1421.87085       3.6168       3.7077    1421.87085       3.6167       3.7076
   1421.85559       3.5915       3.8122    1421.85559       3.5914       3.8121
   1421.84033       3.6020       3.7814    1421.84033       3.6019       3.7812
   1421.82507       3.5343       3.7649    1421.82507       3.5342       3.7647
   1421.80981       3.4849       3.7534    1421.80981       3.4848       3.7533
   1421.79456       3.5095       3.7366    1421.79456       3.5094       3.7364
   1421.77930       3.4648       3.6144    1421.77930       3.4647       3.6142
   1421.76404       3.4334       3.6817    1421.76404       3.4333       3.6816
   1421.74878       3.4414       3.7615    1421.74878       3.4413       3.7613
   1421.73352       3.4299       3.6522    1421.73352       3.4298       3.6520
   1421.71826       3.4417       3.6699    1421.71826       3.4416       3.6698
   1421.70300       3.4940       3.6846    1421.70300       3.4939       3.6844
   1421.68774       3.4167       3.6520    1421.68774       3.4166       3.6519
   1421.67249       3.4771       3.6719    1421.67249       3.4770       3.6718
   1421.65723       3.3981       3.6566    1421.65723       3.3980       3.6564
   1421.64197       3.3015       3.5455    1421.64197       3.3014       3.5453
   1421.62671       3.2117       3.4855    1421.62671       3.2116       3.4853
   1421.61145       3.0790       3.3813    1421.61145       3.0789       3.3812
   1421.59619       3.0200       3.3706    1421.59619       3.0199       3.3704
   1421.58093       2.9703       3.2097    1421.58093       2.9702       3.2096
   1421.56567       2.7382       3.0574    1421.56567       2.7381       3.0572
   1421.55042       2.7160       2.9880    1421.55042       2.7159       2.9879
   1421.53516       2.5949       2.8787    1421.53516       2.5948       2.8786
   1421.51990       2.5973       2.9213    1421.51990       2.5972       2.9212
   1421.50464       2.5414       2.8156    1421.50464       2.5413       2.8155
   1421.48938       2.2751       2.7614    1421.48938       2.2750       2.7613
   1421.47412       2.3212       2.6045    1421.47412       2.3211       2.6044
   1421.45886       2.2930       2.5237    1421.45886       2.2929       2.5235
   1421.44360       2.1536       2.5320    1421.44360       2.1535       2.5319
   1421.42834       2.0313       2.4436    1421.42834       2.0312       2.4435
   1421.41309       1.9933       2.4261    1421.41309       1.9932       2.4260
   1421.39783       1.8605       2.4037    1421.39783       1.8604       2.4036
   1421.38257       1.9925       2.2967    1421.38257       1.9924       2.2966
   1421.36731       1.8996       2.2985    1421.36731       1.8995       2.2984
   1421.35205       1.7792       2.2357    1421.35205       1.7791       2.2356
   1421.33679       1.8090       2.1387    1421.33679       1.8089       2.1386
   1421.32153       1.6887       2.1157    1421.32153       1.6887       2.1157
   1421.30627       1.5610       2.1415    1421.30627       1.5610       2.1414
   1421.29102       1.6206       2.0711    1421.29102       1.6205       2.0711
   1421.27576       1.5872       1.9028    1421.27576       1.5872       1.9027
   1421.26050       1.4961       1.8562    1421.26050       1.4960       1.8561
   1421.24524       1.4084       1.9184    1421.24524       1.4083       1.9183
   1421.22998       1.4202       1.8936    1421.22998       1.4201       1.8935
   1421.21472       1.3112       1.7998    1421.21472       1.3111       1.7997
   1421.19946       1.4180       1.7391    1421.19946       1.4180       1.7390
   1421.18420       1.2952       1.7616    1421.18420       1.2952       1.7615
   1421.16895       1.1809       1.7265    1421.16895       1.1809       1.7264
   1421.15369       1.2209       1.7334    1421.15369       1.2209       1.7333
   1421.13843       1.1552       1.7277    1421.13843       1.1552       1.7277
   1421.12317       1.1824       1.5656    1421.12317       1.1823       1.5656
   1421.10791       1.1152       1.6529    1421.10791       1.1152       1.6529
   1421.09265       1.1968       1.6238    1421.09265       1.1968       1.6237
   1421.07739       1.1398       1.5714    1421.07739       1.1398       1.5714
   1421.06213       1.1525       1.6750    1421.06213       1.1525       1.6750
   1421.04688       1.1595       1.5218    1421.04688       1.1595       1.5218
   1421.03162       1.0885       1.4744    1421.03162       1.0885       1.4744
   1421.01636       1.2286       1.5381    1421.01636       1.2286       1.5381
   1421.00110       1.0589       1.5632    1421.00110       1.0589       1.5631
   1420.98584       1.0814       1.4743    1420.98584       1.0813       1.4742
   1420.97058       1.0322       1.4579    1420.97058       1.0321       1.4579
   1420.95532       1.0188       1.5594    1420.95532       1.0187       1.5594
   1420.94006       0.8609       1.3938    1420.94006       0.8609       1.3937
   1420.92480       0.8126       1.4153    1420.92480       0.8126       1.4153
   1420.90955       0.7523       1.2201    1420.90955       0.7523       1.2200
   1420.89429       0.6823       1.1436    1420.89429       0.6823       1.1436
   1420.87903       0.7704       1.2919    1420.87903       0.7704       1.2918
   1420.86377       0.8386       1.1935    1420.86377       0.8386       1.1935
   1420.84851       0.8450       1.2075    1420.84851       0.8450       1.2074
   1420.83325       0.9466       1.3851    1420.83325       0.9466       1.3850
   1420.81799       0.9472       1.3778    1420.81799       0.9472       1.3777
   1420.80273       0.9876       1.4017    1420.80273       0.9875       1.4016
   1420.78748       0.9604       1.3954    1420.78748       0.9603       1.3953
   1420.77222       1.1776       1.4111    1420.77222       1.1776       1.4110
   1420.75696       1.0755       1.5670    1420.75696       1.0755       1.5670
   1420.74170       1.1428       1.6135    1420.74170       1.1428       1.6135
   1420.72644       1.2564       1.6645    1420.72644       1.2563       1.6644
   1420.71118       1.4526       1.7841    1420.71118       1.4526       1.7840
   1420.69592       1.6180       1.9253    1420.69592       1.6179       1.9253
   1420.68066       1.8779       2.1603    1420.68066       1.8779       2.1602
   1420.66541       1.9782       2.3185    1420.66541       1.9782       2.3184
   1420.65015       2.1041       2.2943    1420.65015       2.1040       2.2942
   1420.63489       2.2250       2.6262    1420.63489       2.2249       2.6261
   1420.61963       2.1829       2.5193    1420.61963       2.1829       2.5191
   1420.60437       2.1781       2.3538    1420.60437       2.1780       2.3537
   1420.58911       2.1414       2.3279    1420.58911       2.1414       2.3278
   1420.57385       1.8594       2.1336    1420.57385       1.8594       2.1336
   1420.55859       1.4943       1.8414    1420.55859       1.4942       1.8413
   1420.54333       1.3283       1.6362    1420.54333       1.3282       1.6361
   1420.52808       1.3272       1.8477    1420.52808       1.3271       1.8476
   1420.51282       1.7478       2.3400    1420.51282       1.7478       2.3399
   1420.49756       1.1727       1.3771    1420.49756       1.1727       1.3770
   1420.48230       0.3330       0.8758    1420.48230       0.3330       0.8757
   1420.46704       0.1140       0.5498    1420.46704       0.1140       0.5498
   1420.45178       0.1829       0.5359    1420.45178       0.1829       0.5358
   1420.43652      -0.2380       0.2271    1420.43652      -0.2380       0.2271
   1420.42126       2.1248       2.5699    1420.42126       2.1247       2.5698
   1420.40601       5.1564       5.4805    1420.40601       5.1562       5.4803
   1420.39075       5.2928       5.6583    1420.39075       5.2927       5.6581
   1420.37549       1.0313       1.3457    1420.37549       1.0312       1.3456
   1420.36023       0.3940       0.8364    1420.36023       0.3940       0.8363
   1420.34497       0.4972       0.9102    1420.34497       0.4971       0.9101
   1420.32971       0.7023       1.1744    1420.32971       0.7023       1.1744
   1420.31445       0.7268       1.2057    1420.31445       0.7268       1.2056
   1420.29919       0.7705       1.2654    1420.29919       0.7705       1.2654
   1420.28394       0.8098       1.2141    1420.28394       0.8098       1.2141
   1420.26868       0.9109       1.1609    1420.26868       0.9108       1.1609
   1420.25342       0.8597       1.2207    1420.25342       0.8596       1.2206
   1420.23816       0.8017       1.1446    1420.23816       0.8017       1.1446
   1420.22290       0.8602       1.2393    1420.22290       0.8602       1.2393
   1420.20764       0.8105       1.2518    1420.20764       0.8105       1.2517
   1420.19238       0.9125       1.3102    1420.19238       0.9125       1.3101
   1420.17712       0.9365       1.1954    1420.17712       0.9365       1.1954
   1420.16187       0.8334       1.2759    1420.16187       0.8334       1.2759
   1420.14661       0.8955       1.2720    1420.14661       0.8955       1.2719
   1420.13135       0.8847       1.1807    1420.13135       0.8847       1.1806
   1420.11609       0.8977       1.3552    1420.11609       0.8976       1.3552
   1420.10083       0.8762       1.2799    1420.10083       0.8762       1.2799
   1420.08557       0.8921       1.1717    1420.08557       0.8920       1.1717
   1420.07031       0.9016       1.2822    1420.07031       0.9015       1.2822
   1420.05505       0.8494       1.1764    1420.05505       0.8493       1.1764
   1420.03979       0.8757       1.2592    1420.03979       0.8757       1.2591
   1420.02454       0.9363       1.3094    1420.02454       0.9362       1.3093
   1420.00928       0.8337       1.3022    1420.00928       0.8337       1.3022
   1419.99402       0.9034       1.2765    1419.99402       0.9033       1.2765
   1419.97876       0.8334       1.2387    1419.97876       0.8334       1.2386
   1419.96350       0.8600       1.2241    1419.96350       0.8600       1.2240
   1419.94824       0.8185       1.2181    1419.94824       0.8184       1.2180
   1419.93298       0.9472       1.3119    1419.93298       0.9472       1.3118
   1419.91772       0.9719       1.3259    1419.91772       0.9719       1.3259
   1419.90247       0.9994       1.1777    1419.90247       0.9993       1.1777
   1419.88721       0.9264       1.2810    1419.88721       0.9264       1.2810
   1419.87195       0.8765       1.2243    1419.87195       0.8765       1.2243
   1419.85669       0.9144       1.2873    1419.85669       0.9144       1.2873
   1419.84143       0.8736       1.3019    1419.84143       0.8736       1.3018
   1419.82617       0.9397       1.2125    1419.82617       0.9396       1.2124
   1419.81091       0.9091       1.3128    1419.81091       0.9091       1.3128
   1419.79565       0.9037       1.2364    1419.79565       0.9037       1.2363
   1419.78040       0.8614       1.2286    1419.78040       0.8614       1.2285
   1419.76514       0.8399       1.1551    1419.76514       0.8399       1.1550
   1419.74988       0.9223       1.1051    1419.74988       0.9223       1.1051
   1419.73462       0.9449       1.2465    1419.73462       0.9449       1.2464
   1419.71936       0.9325       1.1626    1419.71936       0.9325       1.1625
   1419.70410       0.9234       1.2428    1419.70410       0.9233       1.2428
   1419.68884       0.9345       1.3453    1419.68884       0.9345       1.3452
   1419.67358       0.9464       1.2549    1419.67358       0.9464       1.2549
   1419.65833       0.8924       1.1910    1419.65833       0.8924       1.1909
   1419.64307       0.9356       1.2965    1419.64307       0.9356       1.2965
   1419.62781       0.9239       1.1786    1419.62781       0.9239       1.1785
   1419.61255       0.9229       1.1751    1419.61255       0.9229       1.1750
   1419.59729       0.9004       1.3218    1419.59729       0.9004       1.3217
   1419.58203       0.9060       1.1920    1419.58203       0.9060       1.1919
   1419.56677       0.9063       1.2850    1419.56677       0.9062       1.2849
   1419.55151       0.8715       1.3602    1419.55151       0.8714       1.3602
   1419.53625       0.9218       1.3258    1419.53625       0.9218       1.3257
   1419.52100       0.9796       1.2056    1419.52100       0.9796       1.2056
   1419.50574       0.8666       1.2923    1419.50574       0.8666       1.2923
   1419.49048       0.9253       1.2385    1419.49048       0.9253       1.2384
   1419.47522       0.8974       1.3037    1419.47522       0.8974       1.3036
   1419.45996       0.9086       1.2150    1419.45996       0.9086       1.2149
   1419.44470       0.9070       1.3309    1419.44470       0.9070       1.3309
   1419.42944       0.9800       1.3448    1419.42944       0.9800       1.3447
   1419.41418       0.9714       1.2598    1419.41418       0.9714       1.2597
   1419.39893       0.9031       1.3344    1419.39893       0.9031       1.3343
   1419.38367       0.9129       1.2900    1419.38367       0.9128       1.2900
   1419.36841       0.9357       1.2909    1419.36841       0.9356       1.2908
   1419.35315       0.8387       1.3348    1419.35315       0.8387       1.3347
   1419.33789       0.8769       1.1368    1419.33789       0.8769       1.1367
   1419.32263       0.8955       1.2004    1419.32263       0.8954       1.2003
   1419.30737       0.9648       1.3014    1419.30737       0.9648       1.3014
   1419.29211       0.7476       1.3055    1419.29211       0.7475       1.3055
   1419.27686       0.8026       1.1753    1419.27686       0.8026       1.1752
   1419.26160       0.8577       1.3452    1419.26160       0.8576       1.3451
   1419.24634       0.9086       1.2352    1419.24634       0.9086       1.2351
   1419.23108       0.8876       1.3554    1419.23108       0.8875       1.3554
   1419.21582       0.8543       1.3155    1419.21582       0.8543       1.3155
   1419.20056       0.8561       1.3861    1419.20056       0.8561       1.3861
   1419.18530       0.8398       1.3578    1419.18530       0.8398       1.3577
   1419.17004       0.8768       1.2105    1419.17004       0.8767       1.2105
   1419.15479       0.7922       1.3599    1419.15479       0.7922       1.3598
   1419.13953       0.8972       1.3564    1419.13953       0.8971       1.3563
   1419.12427       0.9195       1.2929    1419.12427       0.9195       1.2929
   1419.10901       0.8463       1.3105    1419.10901       0.8463       1.3104
   1419.09375       0.9355       1.2746    1419.09375       0.9354       1.2745
   1419.07849       0.9931       1.2347    1419.07849       0.9931       1.2346
   1419.06323       0.8389       1.2387    1419.06323       0.8389       1.2386
   1419.04797       0.8611       1.2549    1419.04797       0.8610       1.2549
   1419.03271       0.9127       1.2578    1419.03271       0.9127       1.2577
   1419.01746       0.8194       1.3477    1419.01746       0.8194       1.3477
   1419.00220       0.8702       1.3772    1419.00220       0.8701       1.3771
   1418.98694       1.0002       1.3122    1418.98694       1.0001       1.3122
   1418.97168       0.8737       1.2411    1418.97168       0.8737       1.2411
   1418.95642       1.0066       1.3052    1418.95642       1.0065       1.3051
   1418.94116       0.8288       1.3369    1418.94116       0.8287       1.3368
   1418.92590       0.9235       1.2108    1418.92590       0.9235       1.2108
   1418.91064       0.9567       1.3738    1418.91064       0.9566       1.3737
   1418.89539       0.9439       1.3870    1418.89539       0.9438       1.3869
   1418.88013       0.9252       1.3536    1418.88013       0.9252       1.3536
   1418.86487       0.8778       1.3194    1418.86487       0.8778       1.3194
   1418.84961       0.8682       1.2303    1418.84961       0.8682       1.2302
   1418.83435       0.8896       1.2991    1418.83435       0.8896       1.2991
   1418.81909       0.8354       1.3123    1418.81909       0.8353       1.3122
   1418.80383       0.8488       1.3544    1418.80383       0.8487       1.3543
   1418.78857       0.9196       1.2581    1418.78857       0.9196       1.2580
   1418.77332       0.8887       1.3930    1418.77332       0.8887       1.3929
   1418.75806       1.0057       1.2841    1418.75806       1.0057       1.2841
   1418.74280       0.9474       1.3547    1418.74280       0.9473       1.3546
   1418.72754       0.8818       1.1532    1418.72754       0.8817       1.1532
   1418.71228       0.9786       1.2785    1418.71228       0.9785       1.2784
   1418.69702       1.0190       1.3830    1418.69702       1.0190       1.3829
   1418.68176       0.9305       1.3227    1418.68176       0.9304       1.3227
   1418.66650       0.9986       1.3820    1418.66650       0.9985       1.3820
   1418.65125       0.9003       1.2706    1418.65125       0.9003       1.2706
   1418.63599       0.9009       1.3124    1418.63599       0.9009       1.3124
   1418.62073       0.8954       1.3030    1418.62073       0.8954       1.3030
   1418.60547       1.0336       1.4451    1418.60547       1.0336       1.4451
   1418.59021       0.8794       1.3522    1418.59021       0.8793       1.3521
   1418.57495       0.9454       1.3023    1418.57495       0.9454       1.3022
   1418.55969       0.9225       1.4067    1418.55969       0.9224       1.4067
   1418.54443       0.8526       1.3421    1418.54443       0.8526       1.3421
   1418.52917       0.8617       1.3576    1418.52917       0.8616       1.3576
   1418.51392       0.9617       1.2550    1418.51392       0.9617       1.2550
   1418.49866       0.9072       1.3411    1418.49866       0.9071       1.3411
   1418.48340       0.9580       1.3202    1418.48340       0.9579       1.3202
   1418.46814       1.0247       1.4077    1418.46814       1.0247       1.4077
   1418.45288       0.8893       1.2898    1418.45288       0.8893       1.2897
   1418.43762       0.9377       1.3888    1418.43762       0.9377       1.3887
   1418.42236       0.8674       1.4928    1418.42236       0.8674       1.4928
   1418.40710       0.9414       1.2941    1418.40710       0.9414       1.2940
   1418.39185       1.0219       1.3300    1418.39185       1.0218       1.3299
   1418.37659       0.8578       1.3350    1418.37659       0.8578       1.3350
   1418.36133       0.8017       1.4094    1418.36133       0.8017       1.4094
   1418.34607       0.9121       1.2333    1418.34607       0.9121       1.2333
   1418.33081       0.8634       1.3176    1418.33081       0.8634       1.3175
   1418.31555       0.9642       1.2775    1418.31555       0.9642       1.2774
   1418.30029       0.8454       1.3140    1418.30029       0.8454       1.3139
   1418.28503       1.0474       1.3172    1418.28503       1.0474       1.3171
   1418.26978       0.9364       1.3962    1418.26978       0.9364       1.3961
   1418.25452       1.0898       1.3263    1418.25452       1.0897       1.3263
   1418.23926       0.9559       1.3732    1418.23926       0.9559       1.3731
   1418.22400       0.8976       1.3609    1418.22400       0.8976       1.3609
   1418.20874       0.9621       1.4632    1418.20874       0.9620       1.4631
   1418.19348       1.0177       1.4064    1418.19348       1.0177       1.4064
   1418.17822       0.9499       1.4131    1418.17822       0.9499       1.4131
   1418.16296       1.0094       1.4468    1418.16296       1.0093       1.4467
   1418.14771       1.0245       1.3311    1418.14771       1.0245       1.3310
   1418.13245       1.0034       1.3148    1418.13245       1.0033       1.3148
   1418.11719       0.9385       1.3002    1418.11719       0.9384       1.3001
   1418.10193       1.0402       1.3037    1418.10193       1.0401       1.3036
   1418.08667       1.0250       1.4155    1418.08667       1.0250       1.4154
   1418.07141       0.8723       1.4102    1418.07141       0.8723       1.4102
   1418.05615       0.9211       1.3216    1418.05615       0.9211       1.3216
   1418.04089       1.0348       1.2949    1418.04089       1.0348       1.2948
   1418.02563       0.9863       1.3987    1418.02563       0.9862       1.3986
   1418.01038       1.0249       1.3832    1418.01038       1.0249       1.3832
   1417.99512       1.0314       1.2814    1417.99512       1.0314       1.2814
   1417.97986       0.9478       1.3423    1417.97986       0.9478       1.3423
   1417.96460       0.9468       1.4164    1417.96460       0.9467       1.4164
   1417.94934       1.0687       1.3404    1417.94934       1.0686       1.3404
   1417.93408       1.0460       1.2450    1417.93408       1.0460       1.2450
   1417.91882       0.8604       1.2957    1417.91882       0.8604       1.2956
   1417.90356       1.0301       1.3044    1417.90356       1.0300       1.3043
   1417.88831       0.9743       1.3590    1417.88831       0.9743       1.3589
   1417.87305       0.8890       1.3929    1417.87305       0.8890       1.3929
   1417.85779       0.8864       1.3259    1417.85779       0.8864       1.3258
   1417.84253       0.9925       1.3122    1417.84253       0.9925       1.3121
   1417.82727       1.0500       1.3377    1417.82727       1.0499       1.3376
   1417.81201       1.0328       1.3228    1417.81201       1.0327       1.3227
   1417.79675       1.1057       1.3217    1417.79675       1.1057       1.3216
   1417.78149       0.9720       1.4031    1417.78149       0.9719       1.4031
   1417.76624       1.0460       1.3811    1417.76624       1.0459       1.3810
   1417.75098       1.0062       1.3810    1417.75098       1.0062       1.3809
   1417.73572       1.0275       1.3906    1417.73572       1.0275       1.3906
   1417.72046       1.1204       1.2897    1417.72046       1.1203       1.2896
   1417.70520       1.0388       1.3323    1417.70520       1.0387       1.3322
   1417.68994       1.0854       1.3855    1417.68994       1.0854       1.3854
   1417.67468       1.0965       1.3737    1417.67468       1.0965       1.3736
   1417.65942       1.0449       1.4416    1417.65942       1.0449       1.4416
   1417.64417       0.9504       1.4480    1417.64417       0.9503       1.4479
   1417.62891       1.1307       1.4105    1417.62891       1.1307       1.4104
   1417.61365       1.1418       1.3430    1417.61365       1.1418       1.3430
   1417.59839       1.0303       1.4220    1417.59839       1.0303       1.4220
   1417.58313       0.9019       1.3088    1417.58313       0.9019       1.3087
   1417.56787       1.1683       1.2888    1417.56787       1.1683       1.2887
   1417.55261       1.1858       1.3779    1417.55261       1.1857       1.3779
   1417.53735       1.0989       1.2892    1417.53735       1.0989       1.2891
   1417.52209       1.0666       1.2564    1417.52209       1.0665       1.2563
   1417.50684       1.0366       1.2667    1417.50684       1.0366       1.2667
   1417.49158       1.1709       1.3478    1417.49158       1.1708       1.3477
   1417.47632       1.1284       1.4178    1417.47632       1.1283       1.4178
   1417.46106       1.1225       1.4003    1417.46106       1.1225       1.4002
   1417.44580       1.0746       1.4280    1417.44580       1.0746       1.4280
   1417.43054       1.0469       1.3636    1417.43054       1.0469       1.3635
   1417.41528       1.1294       1.3843    1417.41528       1.1293       1.3842
   1417.40002       1.0464       1.3606    1417.40002       1.0463       1.3605
   1417.38477       1.0749       1.3062    1417.38477       1.0749       1.3062
   1417.36951       1.1133       1.3840    1417.36951       1.1133       1.3840
   1417.35425       1.0776       1.3417    1417.35425       1.0775       1.3416
   1417.33899       1.0403       1.3636    1417.33899       1.0402       1.3636
   1417.32373       1.0962       1.2723    1417.32373       1.0961       1.2722
   1417.30847       1.1442       1.3170    1417.30847       1.1442       1.3170
   1417.29321       1.0545       1.3491    1417.29321       1.0544       1.3490
   1417.27795       1.1799       1.2745    1417.27795       1.1798       1.2745
   1417.26270       1.1352       1.2742    1417.26270       1.1352       1.2742
   1417.24744       1.2022       1.3277    1417.24744       1.2022       1.3276
   1417.23218       1.1005       1.3245    1417.23218       1.1005       1.3244
   1417.21692       1.2189       1.4527    1417.21692       1.2189       1.4527
   1417.20166       1.1185       1.3671    1417.20166       1.1185       1.3670
   1417.18640       1.1546       1.4442    1417.18640       1.1546       1.4442
   1417.17114       1.0807       1.3802    1417.17114       1.0807       1.3802
   1417.15588       1.1021       1.3673    1417.15588       1.1020       1.3673
   1417.14062       1.1597       1.2620    1417.14062       1.1597       1.2620
   1417.12537       1.1491       1.3392    1417.12537       1.1490       1.3391
   1417.11011       1.2454       1.3583    1417.11011       1.2453       1.3582
   1417.09485       1.0850       1.3758    1417.09485       1.0850       1.3758
   1417.07959       1.1960       1.3047    1417.07959       1.1959       1.3046
   1417.06433       1.0507       1.3843    1417.06433       1.0506       1.3842
   1417.04907       1.1759       1.4516    1417.04907       1.1759       1.4515
   1417.03381       1.3077       1.4938    1417.03381       1.3076       1.4938
   1417.01855       1.1657       1.3607    1417.01855       1.1657       1.3606
   1417.00330       1.2625       1.3890    1417.00330       1.2625       1.3890
   1416.98804       1.1638       1.4275    1416.98804       1.1638       1.4275
   1416.97278       1.1394       1.3295    1416.97278       1.1394       1.3295
   1416.95752       1.2444       1.4107    1416.95752       1.2443       1.4106
   1416.94226       1.1888       1.4062    1416.94226       1.1888       1.4062
   1416.92700       1.1704       1.3545    1416.92700       1.1704       1.3544
   1416.91174       1.1943       1.4318    1416.91174       1.1943       1.4318
   1416.89648       1.1308       1.3387    1416.89648       1.1308       1.3387
   1416.88123       1.1911       1.3259    1416.88123       1.1910       1.3259
   1416.86597       1.1640       1.3960    1416.86597       1.1640       1.3960
   1416.85071       1.2197       1.3286    1416.85071       1.2196       1.3286
   1416.83545       1.2585       1.3203    1416.83545       1.2585       1.3203
   1416.82019       1.1455       1.3435    1416.82019       1.1455       1.3434
   1416.80493       1.1977       1.4523    1416.80493       1.1976       1.4523
   1416.78967       1.2646       1.2950    1416.78967       1.2645       1.2949
   1416.77441       1.3805       1.3024    1416.77441       1.3804       1.3024
   1416.75916       1.1020       1.2636    1416.75916       1.1019       1.2636
   1416.74390       1.1703       1.3616    1416.74390       1.1702       1.3615
   1416.72864       1.1240       1.3371    1416.72864       1.1240       1.3370
   1416.71338       1.2421       1.4033    1416.71338       1.2421       1.4032
   1416.69812       1.2517       1.3187    1416.69812       1.2517       1.3186
   1416.68286       1.2897       1.3089    1416.68286       1.2896       1.3089
   1416.66760       1.2366       1.4270    1416.66760       1.2365       1.4270
   1416.65234       1.2347       1.3645    1416.65234       1.2347       1.3644
   1416.63708       1.3876       1.4008    1416.63708       1.3875       1.4007
   1416.62183       1.2733       1.2851    1416.62183       1.2733       1.2851
   1416.60657       1.3210       1.2733    1416.60657       1.3210       1.2732
   1416.59131       1.2300       1.3366    1416.59131       1.2300       1.3365
   1416.57605       1.1346       1.3798    1416.57605       1.1346       1.3798
   1416.56079       1.2607       1.3075    1416.56079       1.2606       1.3074
   1416.54553       1.2444       1.3351    1416.54553       1.2444       1.3350
   1416.53027       1.1820       1.4251    1416.53027       1.1820       1.4250
   1416.51501       1.2693       1.3576    1416.51501       1.2693       1.3575
   1416.49976       1.3908       1.2832    1416.49976       1.3908       1.2832
   1416.48450       1.2330       1.3917    1416.48450       1.2329       1.3916
   1416.46924       1.1635       1.3646    1416.46924       1.1635       1.3646
   1416.45398       1.3212       1.2844    1416.45398       1.3211       1.2843
   1416.43872       1.2888       1.2831    1416.43872       1.2888       1.2830
   1416.42346       1.2508       1.3430    1416.42346       1.2507       1.3429
   1416.40820       1.3016       1.3660    1416.40820       1.3015       1.3659
   1416.39294       1.3747       1.2833    1416.39294       1.3746       1.2832
   1416.37769       1.3261       1.3856    1416.37769       1.3260       1.3855
   1416.36243       1.2391       1.4100    1416.36243       1.2390       1.4100
   1416.34717       1.3361       1.2936    1416.34717       1.3361       1.2935
   1416.33191       1.3352       1.3982    1416.33191       1.3352       1.3981
   1416.31665       1.2694       1.3777    1416.31665       1.2694       1.3776
   1416.30139       1.3049       1.2863    1416.30139       1.3049       1.2863
   1416.28613       1.2967       1.4199    1416.28613       1.2966       1.4199
   1416.27087       1.3221       1.2819    1416.27087       1.3220       1.2818
   1416.25562       1.2214       1.2702    1416.25562       1.2214       1.2702
   1416.24036       1.1971       1.3372    1416.24036       1.1970       1.3371
   1416.22510       1.2710       1.3458    1416.22510       1.2709       1.3457
   1416.20984       1.2306       1.3831    1416.20984       1.2306       1.3831
   1416.19458       1.2715       1.3240    1416.19458       1.2714       1.3240
   1416.17932       1.2835       1.2874    1416.17932       1.2835       1.2873
   1416.16406       1.2941       1.3940    1416.16406       1.2940       1.3940
   1416.14880       1.3386       1.3546    1416.14880       1.3386       1.3545
   1416.13354       1.3052       1.3439    1416.13354       1.3052       1.3438
   1416.11829       1.2204       1.3185    1416.11829       1.2204       1.3185
   1416.10303       1.3841       1.3570    1416.10303       1.3840       1.3570
   1416.08777       1.3111       1.1992    1416.08777       1.3110       1.1991
   1416.07251       1.3163       1.3748    1416.07251       1.3163       1.3748
   1416.05725       1.2977       1.3772    1416.05725       1.2977       1.3772
   1416.04199       1.3507       1.2921    1416.04199       1.3506       1.2921
   1416.02673       1.3143       1.3608    1416.02673       1.3143       1.3608
   1416.01147       1.2762       1.3862    1416.01147       1.2761       1.3861
   1415.99622       1.3485       1.2644    1415.99622       1.3484       1.2643
