#     FILENAME=Skynet_59284_M31_15kpc_MBoyle_52426_1406.A.onoff.cal.txt
#     BASENAME=Skynet_59284_M31_15kpc_MBoyle_52426_1406
#      CONTROL=SKYNET
#     PROJCODE=Skynet_59284_M31_15kpc_MBoyle_52426
#     DATAROOT=/raid/scratch/cyborg/SkynetData
#      DATADIR=/raid/scratch/cyborg
#     DATADIR2=/raid/scratch/cyborg/SkynetData/Skynet_59284_M31_15kpc_MBoyle_5
#     SCANNAME=2019_06_26_10
#     SRC_NAME=M31_15kpc_MBoyle
#     OBSERVER=unioncollege_21317
#     DATE_OBS=2021-03-11T12:38:22.260
#        OBSID=52426
#      SCANNUM=1406
#          MJD=59284.5266465
#          UTC=45502
#     SCANTYPE=onoff
#     DATAMODE=HIRES
#     RECEIVER=Rx1_2
#      OBSFREQ=1395.0000
# Actual_FREQ1=1420.4000,
# Actual_FREQ2=1420.4000
#    LO1Tuning=6870.4000
#     RFFILTER=1355_1435
#        OBSBW=-15.6250
#     EFFBANDW=15.6250
#        NCHAN=1024
#    STARTCHAN=51
#     STOPCHAN=972
#         TINT=0.3000
#         TBIN=0.00419430
#       ACCLEN=2048 
#     DURATION=166.80
#     EXPOSURE=125.98
#        FOCUS=37.093
#       RA,DEC=00:39:27.21, 40:24:31.40
#      RA(deg)=8.48720
#     DEC(deg)=40.40885
#   WIDTH(deg)=2.0936x0.0319
#    AZIM(deg)=56.0005
#    ELEV(deg)=24.1877
#     COORDREF=RA_DEC_
#         HREF=9.7900
#         VREF=40.4090
#      RADESYS=FK5
#       OFFSYS=RADEC
#      EQUINOX=2000.00
#     IFATTENS=21.00, 14.00
#   BALANCELEV=1.200 
#   POWER_XLYR=[1.12, 1.19] 
#       VELDEF=RADI-OBS 
#     VELOCITY=0.000 
#         NPOL=2 
#      POLMODE=Linear 
#      POLTYPE=XXYY 
#      WARNING=None 
#     NOISECAL=HI 
#       PRECAL=2 
#      POSTCAL=2 
#     CRYOTEMP=15 
#      BOXTEMP=26 
#         TSYS=XX1:34.16, YY1:41.42
#         TSYS=XX2:34.16, YY2:41.40
#         TCAL=XX1:9.17, YY1:10.07
#         TCAL=XX2:9.17, YY2:10.07
# Calibrated spectra: Tsys*(ON-OFF)/OFF 
#                
#                
#Freq1(MHz)         XX1          YY1   Freq2(MHz)       XX2         YY2 
   1427.43430       0.4046       0.5403    1427.43430       0.4046       0.5402
   1427.41904       0.3858       0.4222    1427.41904       0.3858       0.4220
   1427.40378       0.4093       0.4650    1427.40378       0.4092       0.4649
   1427.38853       0.4304       0.5640    1427.38853       0.4303       0.5638
   1427.37327       0.4797       0.5126    1427.37327       0.4796       0.5124
   1427.35801       0.4772       0.4515    1427.35801       0.4770       0.4513
   1427.34275       0.4919       0.4693    1427.34275       0.4918       0.4692
   1427.32749       0.4126       0.4867    1427.32749       0.4125       0.4865
   1427.31223       0.3993       0.4981    1427.31223       0.3992       0.4979
   1427.29697       0.3655       0.5831    1427.29697       0.3654       0.5829
   1427.28171       0.5256       0.4691    1427.28171       0.5255       0.4689
   1427.26646       0.5089       0.4701    1427.26646       0.5088       0.4699
   1427.25120       0.4284       0.4624    1427.25120       0.4283       0.4623
   1427.23594       0.4136       0.4224    1427.23594       0.4135       0.4223
   1427.22068       0.3992       0.4566    1427.22068       0.3991       0.4565
   1427.20542       0.4637       0.5147    1427.20542       0.4636       0.5145
   1427.19016       0.4766       0.4435    1427.19016       0.4765       0.4434
   1427.17490       0.4480       0.5176    1427.17490       0.4479       0.5174
   1427.15964       0.4083       0.5297    1427.15964       0.4082       0.5295
   1427.14438       0.3724       0.4409    1427.14438       0.3723       0.4408
   1427.12913       0.4588       0.4216    1427.12913       0.4587       0.4215
   1427.11387       0.3787       0.4319    1427.11387       0.3787       0.4317
   1427.09861       0.4232       0.5627    1427.09861       0.4231       0.5625
   1427.08335       0.5573       0.3906    1427.08335       0.5571       0.3905
   1427.06809       0.4445       0.3127    1427.06809       0.4444       0.3126
   1427.05283       0.4480       0.4838    1427.05283       0.4479       0.4836
   1427.03757       0.4265       0.4458    1427.03757       0.4264       0.4457
   1427.02231       0.4499       0.4634    1427.02231       0.4498       0.4632
   1427.00706       0.4065       0.4398    1427.00706       0.4064       0.4397
   1426.99180       0.4981       0.4588    1426.99180       0.4980       0.4586
   1426.97654       0.5143       0.3436    1426.97654       0.5142       0.3435
   1426.96128       0.4781       0.4172    1426.96128       0.4780       0.4171
   1426.94602       0.4351       0.4432    1426.94602       0.4350       0.4430
   1426.93076       0.3500       0.4892    1426.93076       0.3499       0.4890
   1426.91550       0.4798       0.4050    1426.91550       0.4797       0.4049
   1426.90024       0.4943       0.3462    1426.90024       0.4942       0.3461
   1426.88499       0.5156       0.4949    1426.88499       0.5155       0.4947
   1426.86973       0.4358       0.4371    1426.86973       0.4357       0.4370
   1426.85447       0.4055       0.4949    1426.85447       0.4054       0.4947
   1426.83921       0.4987       0.5155    1426.83921       0.4986       0.5153
   1426.82395       0.4433       0.4145    1426.82395       0.4432       0.4144
   1426.80869       0.3998       0.4049    1426.80869       0.3997       0.4048
   1426.79343       0.4796       0.4703    1426.79343       0.4795       0.4702
   1426.77817       0.4858       0.4289    1426.77817       0.4857       0.4287
   1426.76292       0.4962       0.4229    1426.76292       0.4961       0.4228
   1426.74766       0.4317       0.3779    1426.74766       0.4316       0.3778
   1426.73240       0.3961       0.4511    1426.73240       0.3961       0.4510
   1426.71714       0.3946       0.4251    1426.71714       0.3945       0.4249
   1426.70188       0.4553       0.4016    1426.70188       0.4552       0.4015
   1426.68662       0.4589       0.4014    1426.68662       0.4588       0.4013
   1426.67136       0.3903       0.4423    1426.67136       0.3902       0.4422
   1426.65610       0.4735       0.4019    1426.65610       0.4734       0.4018
   1426.64084       0.4277       0.5110    1426.64084       0.4276       0.5108
   1426.62559       0.3486       0.3760    1426.62559       0.3485       0.3759
   1426.61033       0.4538       0.4867    1426.61033       0.4537       0.4865
   1426.59507       0.5358       0.3939    1426.59507       0.5357       0.3938
   1426.57981       0.5276       0.4686    1426.57981       0.5275       0.4684
   1426.56455       0.4183       0.4097    1426.56455       0.4182       0.4095
   1426.54929       0.5035       0.4274    1426.54929       0.5034       0.4272
   1426.53403       0.4804       0.4852    1426.53403       0.4803       0.4850
   1426.51877       0.3735       0.3808    1426.51877       0.3734       0.3807
   1426.50352       0.5594       0.3314    1426.50352       0.5593       0.3313
   1426.48826       0.4207       0.3958    1426.48826       0.4206       0.3957
   1426.47300       0.4560       0.4517    1426.47300       0.4559       0.4516
   1426.45774       0.3750       0.4632    1426.45774       0.3749       0.4631
   1426.44248       0.4404       0.4153    1426.44248       0.4403       0.4151
   1426.42722       0.4255       0.4577    1426.42722       0.4254       0.4576
   1426.41196       0.4551       0.4470    1426.41196       0.4550       0.4469
   1426.39670       0.5145       0.4150    1426.39670       0.5144       0.4149
   1426.38145       0.4628       0.4509    1426.38145       0.4627       0.4508
   1426.36619       0.4410       0.4010    1426.36619       0.4409       0.4009
   1426.35093       0.4346       0.3231    1426.35093       0.4345       0.3230
   1426.33567       0.4175       0.3481    1426.33567       0.4175       0.3480
   1426.32041       0.4953       0.4460    1426.32041       0.4952       0.4459
   1426.30515       0.5093       0.5276    1426.30515       0.5092       0.5274
   1426.28989       0.4629       0.4630    1426.28989       0.4628       0.4628
   1426.27463       0.4400       0.3994    1426.27463       0.4399       0.3993
   1426.25937       0.4294       0.4529    1426.25937       0.4293       0.4528
   1426.24412       0.4255       0.4397    1426.24412       0.4254       0.4396
   1426.22886       0.3791       0.4252    1426.22886       0.3790       0.4251
   1426.21360       0.4366       0.3818    1426.21360       0.4365       0.3817
   1426.19834       0.4534       0.4811    1426.19834       0.4533       0.4810
   1426.18308       0.3640       0.4222    1426.18308       0.3639       0.4220
   1426.16782       0.4600       0.3979    1426.16782       0.4599       0.3978
   1426.15256       0.4574       0.4634    1426.15256       0.4573       0.4633
   1426.13730       0.4782       0.4088    1426.13730       0.4781       0.4087
   1426.12205       0.4800       0.3420    1426.12205       0.4799       0.3419
   1426.10679       0.5212       0.4332    1426.10679       0.5211       0.4331
   1426.09153       0.4198       0.4671    1426.09153       0.4197       0.4670
   1426.07627       0.5484       0.4557    1426.07627       0.5483       0.4556
   1426.06101       0.5458       0.4798    1426.06101       0.5457       0.4797
   1426.04575       0.4564       0.4388    1426.04575       0.4563       0.4387
   1426.03049       0.3996       0.3998    1426.03049       0.3996       0.3996
   1426.01523       0.4652       0.5083    1426.01523       0.4651       0.5081
   1425.99998       0.5018       0.4504    1425.99998       0.5017       0.4503
   1425.98472       0.4096       0.4506    1425.98472       0.4095       0.4505
   1425.96946       0.4799       0.4463    1425.96946       0.4798       0.4462
   1425.95420       0.4489       0.3962    1425.95420       0.4488       0.3961
   1425.93894       0.4317       0.4401    1425.93894       0.4316       0.4400
   1425.92368       0.5086       0.4446    1425.92368       0.5085       0.4445
   1425.90842       0.4412       0.4226    1425.90842       0.4411       0.4225
   1425.89316       0.3853       0.3740    1425.89316       0.3853       0.3739
   1425.87791       0.4537       0.3151    1425.87791       0.4536       0.3150
   1425.86265       0.4569       0.3843    1425.86265       0.4568       0.3842
   1425.84739       0.5295       0.2980    1425.84739       0.5294       0.2979
   1425.83213       0.5587       0.3863    1425.83213       0.5586       0.3862
   1425.81687       0.5352       0.4621    1425.81687       0.5351       0.4620
   1425.80161       0.4970       0.5358    1425.80161       0.4969       0.5356
   1425.78635       0.4216       0.4113    1425.78635       0.4215       0.4112
   1425.77109       0.3939       0.4787    1425.77109       0.3939       0.4785
   1425.75583       0.4720       0.3649    1425.75583       0.4719       0.3648
   1425.74058       0.4051       0.5080    1425.74058       0.4050       0.5079
   1425.72532       0.4084       0.3978    1425.72532       0.4083       0.3976
   1425.71006       0.4321       0.3774    1425.71006       0.4320       0.3773
   1425.69480       0.4233       0.4553    1425.69480       0.4232       0.4552
   1425.67954       0.5080       0.3513    1425.67954       0.5079       0.3512
   1425.66428       0.5154       0.3409    1425.66428       0.5153       0.3408
   1425.64902       0.4539       0.4488    1425.64902       0.4538       0.4487
   1425.63376       0.4769       0.4437    1425.63376       0.4768       0.4436
   1425.61851       0.3774       0.4540    1425.61851       0.3773       0.4539
   1425.60325       0.4849       0.3889    1425.60325       0.4848       0.3887
   1425.58799       0.4881       0.4575    1425.58799       0.4880       0.4574
   1425.57273       0.4744       0.3769    1425.57273       0.4743       0.3768
   1425.55747       0.4628       0.4883    1425.55747       0.4627       0.4881
   1425.54221       0.4374       0.4276    1425.54221       0.4373       0.4275
   1425.52695       0.5548       0.4038    1425.52695       0.5547       0.4037
   1425.51169       0.5095       0.5060    1425.51169       0.5094       0.5058
   1425.49644       0.5197       0.4511    1425.49644       0.5196       0.4510
   1425.48118       0.5548       0.3745    1425.48118       0.5547       0.3743
   1425.46592       0.5011       0.4206    1425.46592       0.5010       0.4205
   1425.45066       0.4425       0.5045    1425.45066       0.4424       0.5044
   1425.43540       0.5139       0.4527    1425.43540       0.5138       0.4525
   1425.42014       0.4030       0.3469    1425.42014       0.4029       0.3468
   1425.40488       0.4538       0.3770    1425.40488       0.4537       0.3769
   1425.38962       0.4503       0.3807    1425.38962       0.4502       0.3806
   1425.37437       0.4161       0.3826    1425.37437       0.4160       0.3825
   1425.35911       0.5148       0.4244    1425.35911       0.5147       0.4243
   1425.34385       0.4673       0.3294    1425.34385       0.4672       0.3293
   1425.32859       0.5353       0.4785    1425.32859       0.5352       0.4784
   1425.31333       0.5230       0.3293    1425.31333       0.5229       0.3292
   1425.29807       0.4600       0.3770    1425.29807       0.4599       0.3769
   1425.28281       0.4687       0.4577    1425.28281       0.4686       0.4575
   1425.26755       0.4170       0.3801    1425.26755       0.4169       0.3800
   1425.25229       0.5070       0.4661    1425.25229       0.5069       0.4660
   1425.23704       0.4683       0.3549    1425.23704       0.4682       0.3548
   1425.22178       0.5093       0.3788    1425.22178       0.5092       0.3787
   1425.20652       0.4658       0.3694    1425.20652       0.4657       0.3693
   1425.19126       0.5539       0.4940    1425.19126       0.5538       0.4939
   1425.17600       0.4065       0.3551    1425.17600       0.4064       0.3550
   1425.16074       0.5047       0.4030    1425.16074       0.5045       0.4029
   1425.14548       0.5366       0.4530    1425.14548       0.5365       0.4528
   1425.13022       0.4882       0.5522    1425.13022       0.4880       0.5520
   1425.11497       0.4922       0.4849    1425.11497       0.4921       0.4848
   1425.09971       0.5053       0.3669    1425.09971       0.5052       0.3667
   1425.08445       0.4914       0.3701    1425.08445       0.4912       0.3700
   1425.06919       0.4933       0.4069    1425.06919       0.4932       0.4068
   1425.05393       0.5734       0.3771    1425.05393       0.5733       0.3770
   1425.03867       0.5082       0.4595    1425.03867       0.5081       0.4594
   1425.02341       0.5830       0.4425    1425.02341       0.5828       0.4424
   1425.00815       0.6619       0.4617    1425.00815       0.6618       0.4615
   1424.99290       0.5491       0.4506    1424.99290       0.5490       0.4504
   1424.97764       0.5636       0.3867    1424.97764       0.5635       0.3866
   1424.96238       0.6199       0.4569    1424.96238       0.6198       0.4568
   1424.94712       0.5459       0.4291    1424.94712       0.5458       0.4289
   1424.93186       0.4629       0.3696    1424.93186       0.4628       0.3695
   1424.91660       0.5259       0.4601    1424.91660       0.5258       0.4599
   1424.90134       0.4571       0.4616    1424.90134       0.4570       0.4614
   1424.88608       0.5277       0.4679    1424.88608       0.5276       0.4677
   1424.87083       0.5780       0.3786    1424.87083       0.5779       0.3784
   1424.85557       0.5598       0.3529    1424.85557       0.5596       0.3528
   1424.84031       0.4304       0.4040    1424.84031       0.4303       0.4039
   1424.82505       0.5259       0.3780    1424.82505       0.5258       0.3779
   1424.80979       0.6010       0.3804    1424.80979       0.6009       0.3803
   1424.79453       0.5773       0.4075    1424.79453       0.5772       0.4074
   1424.77927       0.5622       0.4802    1424.77927       0.5621       0.4801
   1424.76401       0.5574       0.4782    1424.76401       0.5572       0.4781
   1424.74875       0.5946       0.4627    1424.74875       0.5945       0.4626
   1424.73350       0.6068       0.4518    1424.73350       0.6067       0.4516
   1424.71824       0.5466       0.4109    1424.71824       0.5465       0.4107
   1424.70298       0.4839       0.4493    1424.70298       0.4838       0.4492
   1424.68772       0.4812       0.5821    1424.68772       0.4811       0.5820
   1424.67246       0.5018       0.4787    1424.67246       0.5017       0.4786
   1424.65720       0.5718       0.4397    1424.65720       0.5717       0.4396
   1424.64194       0.6173       0.4822    1424.64194       0.6172       0.4821
   1424.62668       0.6290       0.4564    1424.62668       0.6289       0.4562
   1424.61143       0.6418       0.4956    1424.61143       0.6416       0.4955
   1424.59617       0.5868       0.4753    1424.59617       0.5866       0.4752
   1424.58091       0.6356       0.5226    1424.58091       0.6354       0.5224
   1424.56565       0.5725       0.4160    1424.56565       0.5724       0.4159
   1424.55039       0.6088       0.5489    1424.55039       0.6087       0.5487
   1424.53513       0.5226       0.4609    1424.53513       0.5225       0.4607
   1424.51987       0.6186       0.5136    1424.51987       0.6185       0.5134
   1424.50461       0.5484       0.3811    1424.50461       0.5483       0.3810
   1424.48936       0.5092       0.3979    1424.48936       0.5091       0.3978
   1424.47410       0.5534       0.4780    1424.47410       0.5533       0.4779
   1424.45884       0.6008       0.4269    1424.45884       0.6007       0.4268
   1424.44358       0.5763       0.4111    1424.44358       0.5762       0.4110
   1424.42832       0.5735       0.5618    1424.42832       0.5734       0.5616
   1424.41306       0.5421       0.4662    1424.41306       0.5420       0.4660
   1424.39780       0.5544       0.5618    1424.39780       0.5543       0.5616
   1424.38254       0.5225       0.4817    1424.38254       0.5224       0.4815
   1424.36729       0.5604       0.4112    1424.36729       0.5603       0.4110
   1424.35203       0.6297       0.5016    1424.35203       0.6295       0.5014
   1424.33677       0.5844       0.4136    1424.33677       0.5842       0.4135
   1424.32151       0.5846       0.4207    1424.32151       0.5845       0.4205
   1424.30625       0.5711       0.4419    1424.30625       0.5710       0.4417
   1424.29099       0.6123       0.4537    1424.29099       0.6122       0.4536
   1424.27573       0.6121       0.4955    1424.27573       0.6119       0.4953
   1424.26047       0.5913       0.4159    1424.26047       0.5911       0.4157
   1424.24521       0.5889       0.4575    1424.24521       0.5888       0.4573
   1424.22996       0.5810       0.5761    1424.22996       0.5809       0.5759
   1424.21470       0.6029       0.5359    1424.21470       0.6028       0.5357
   1424.19944       0.5423       0.5450    1424.19944       0.5422       0.5448
   1424.18418       0.6238       0.4939    1424.18418       0.6236       0.4937
   1424.16892       0.5603       0.4897    1424.16892       0.5601       0.4895
   1424.15366       0.5793       0.4642    1424.15366       0.5792       0.4641
   1424.13840       0.5472       0.4446    1424.13840       0.5470       0.4445
   1424.12314       0.6450       0.5428    1424.12314       0.6449       0.5426
   1424.10789       0.5595       0.5142    1424.10789       0.5594       0.5140
   1424.09263       0.6079       0.4935    1424.09263       0.6078       0.4934
   1424.07737       0.5580       0.5405    1424.07737       0.5579       0.5403
   1424.06211       0.6843       0.6453    1424.06211       0.6841       0.6451
   1424.04685       0.5370       0.4783    1424.04685       0.5369       0.4782
   1424.03159       0.5373       0.4940    1424.03159       0.5372       0.4938
   1424.01633       0.5962       0.5216    1424.01633       0.5961       0.5214
   1424.00107       0.5715       0.5222    1424.00107       0.5714       0.5220
   1423.98582       0.5384       0.4211    1423.98582       0.5383       0.4209
   1423.97056       0.5587       0.5099    1423.97056       0.5586       0.5097
   1423.95530       0.5291       0.4759    1423.95530       0.5290       0.4757
   1423.94004       0.5812       0.5082    1423.94004       0.5810       0.5080
   1423.92478       0.5915       0.5486    1423.92478       0.5914       0.5484
   1423.90952       0.5763       0.5407    1423.90952       0.5761       0.5405
   1423.89426       0.6098       0.5085    1423.89426       0.6096       0.5083
   1423.87900       0.5808       0.4735    1423.87900       0.5806       0.4734
   1423.86375       0.5916       0.4425    1423.86375       0.5914       0.4424
   1423.84849       0.5424       0.5691    1423.84849       0.5422       0.5690
   1423.83323       0.5775       0.5315    1423.83323       0.5774       0.5313
   1423.81797       0.6448       0.4024    1423.81797       0.6447       0.4023
   1423.80271       0.6129       0.4957    1423.80271       0.6128       0.4956
   1423.78745       0.6028       0.4323    1423.78745       0.6027       0.4322
   1423.77219       0.5845       0.5000    1423.77219       0.5844       0.4999
   1423.75693       0.5656       0.6240    1423.75693       0.5655       0.6238
   1423.74167       0.5659       0.5570    1423.74167       0.5658       0.5569
   1423.72642       0.5964       0.5872    1423.72642       0.5962       0.5870
   1423.71116       0.5223       0.4962    1423.71116       0.5222       0.4960
   1423.69590       0.5714       0.5432    1423.69590       0.5713       0.5430
   1423.68064       0.5728       0.4747    1423.68064       0.5727       0.4745
   1423.66538       0.6278       0.5049    1423.66538       0.6276       0.5048
   1423.65012       0.6060       0.5357    1423.65012       0.6059       0.5355
   1423.63486       0.5509       0.6295    1423.63486       0.5508       0.6293
   1423.61960       0.6136       0.6260    1423.61960       0.6135       0.6258
   1423.60435       0.5939       0.6170    1423.60435       0.5938       0.6168
   1423.58909       0.5580       0.5286    1423.58909       0.5579       0.5284
   1423.57383       0.5995       0.5822    1423.57383       0.5994       0.5820
   1423.55857       0.5987       0.4776    1423.55857       0.5986       0.4774
   1423.54331       0.5482       0.5695    1423.54331       0.5480       0.5693
   1423.52805       0.6177       0.5716    1423.52805       0.6176       0.5715
   1423.51279       0.6031       0.5943    1423.51279       0.6029       0.5941
   1423.49753       0.5554       0.5269    1423.49753       0.5552       0.5267
   1423.48228       0.6459       0.5271    1423.48228       0.6458       0.5270
   1423.46702       0.6003       0.5364    1423.46702       0.6002       0.5363
   1423.45176       0.6267       0.5732    1423.45176       0.6266       0.5731
   1423.43650       0.6003       0.6552    1423.43650       0.6001       0.6550
   1423.42124       0.5777       0.5718    1423.42124       0.5776       0.5716
   1423.40598       0.5804       0.6087    1423.40598       0.5803       0.6085
   1423.39072       0.6657       0.6893    1423.39072       0.6655       0.6891
   1423.37546       0.6863       0.6320    1423.37546       0.6861       0.6318
   1423.36021       0.6576       0.5859    1423.36021       0.6575       0.5857
   1423.34495       0.5915       0.6035    1423.34495       0.5914       0.6033
   1423.32969       0.6310       0.5887    1423.32969       0.6309       0.5885
   1423.31443       0.6508       0.5836    1423.31443       0.6506       0.5834
   1423.29917       0.6096       0.6704    1423.29917       0.6094       0.6701
   1423.28391       0.6020       0.5721    1423.28391       0.6019       0.5719
   1423.26865       0.5720       0.5332    1423.26865       0.5718       0.5330
   1423.25339       0.5127       0.6680    1423.25339       0.5126       0.6678
   1423.23813       0.6159       0.4854    1423.23813       0.6158       0.4852
   1423.22288       0.6388       0.5831    1423.22288       0.6386       0.5829
   1423.20762       0.6611       0.6379    1423.20762       0.6610       0.6377
   1423.19236       0.6165       0.7019    1423.19236       0.6163       0.7016
   1423.17710       0.6146       0.6913    1423.17710       0.6144       0.6911
   1423.16184       0.7155       0.7002    1423.16184       0.7154       0.7000
   1423.14658       0.7199       0.7064    1423.14658       0.7197       0.7062
   1423.13132       0.8690       0.8963    1423.13132       0.8688       0.8960
   1423.11606       0.9407       1.0298    1423.11606       0.9405       1.0295
   1423.10081       0.9142       1.1092    1423.10081       0.9140       1.1089
   1423.08555       1.2213       1.1976    1423.08555       1.2210       1.1972
   1423.07029       1.5062       1.6086    1423.07029       1.5059       1.6080
   1423.05503       1.6618       1.7969    1423.05503       1.6614       1.7964
   1423.03977       1.9411       2.1791    1423.03977       1.9407       2.1784
   1423.02451       2.3987       2.6868    1423.02451       2.3982       2.6859
   1423.00925       2.9184       3.3168    1423.00925       2.9178       3.3157
   1422.99399       3.4708       4.0347    1422.99399       3.4701       4.0334
   1422.97874       3.8491       4.7321    1422.97874       3.8483       4.7306
   1422.96348       4.2530       5.0890    1422.96348       4.2521       5.0874
   1422.94822       4.5474       5.3253    1422.94822       4.5464       5.3236
   1422.93296       4.7343       5.4520    1422.93296       4.7333       5.4502
   1422.91770       4.8025       5.6731    1422.91770       4.8015       5.6714
   1422.90244       4.7699       5.6814    1422.90244       4.7689       5.6796
   1422.88718       4.7622       5.5930    1422.88718       4.7612       5.5913
   1422.87192       4.6759       5.6026    1422.87192       4.6749       5.6009
   1422.85667       4.7022       5.6124    1422.85667       4.7012       5.6107
   1422.84141       4.4581       5.3171    1422.84141       4.4571       5.3154
   1422.82615       4.3728       5.2041    1422.82615       4.3719       5.2025
   1422.81089       4.2719       4.8638    1422.81089       4.2709       4.8623
   1422.79563       3.9355       4.6445    1422.79563       3.9346       4.6430
   1422.78037       3.7235       4.3014    1422.78037       3.7226       4.3000
   1422.76511       3.3631       3.9568    1422.76511       3.3623       3.9555
   1422.74985       3.2479       3.7337    1422.74985       3.2472       3.7325
   1422.73459       3.0426       3.5916    1422.73459       3.0419       3.5905
   1422.71934       2.9514       3.4302    1422.71934       2.9508       3.4292
   1422.70408       2.7585       3.1776    1422.70408       2.7579       3.1766
   1422.68882       2.6339       3.0547    1422.68882       2.6333       3.0538
   1422.67356       2.6030       2.9793    1422.67356       2.6025       2.9783
   1422.65830       2.4870       2.9205    1422.65830       2.4865       2.9196
   1422.64304       2.5867       2.9626    1422.64304       2.5861       2.9617
   1422.62778       2.5354       2.8338    1422.62778       2.5349       2.8329
   1422.61252       2.4124       2.7684    1422.61252       2.4118       2.7676
   1422.59727       2.3521       2.6567    1422.59727       2.3516       2.6558
   1422.58201       2.3829       2.5887    1422.58201       2.3824       2.5879
   1422.56675       2.2383       2.4927    1422.56675       2.2378       2.4919
   1422.55149       2.2313       2.5550    1422.55149       2.2308       2.5542
   1422.53623       2.2063       2.4856    1422.53623       2.2058       2.4848
   1422.52097       2.2745       2.5139    1422.52097       2.2740       2.5131
   1422.50571       2.1949       2.4796    1422.50571       2.1945       2.4788
   1422.49045       2.0806       2.4553    1422.49045       2.0802       2.4545
   1422.47520       1.9141       2.2742    1422.47520       1.9137       2.2735
   1422.45994       1.9020       2.3423    1422.45994       1.9016       2.3416
   1422.44468       1.9313       2.2366    1422.44468       1.9309       2.2359
   1422.42942       1.8868       2.0324    1422.42942       1.8864       2.0317
   1422.41416       1.7044       1.9234    1422.41416       1.7040       1.9228
   1422.39890       1.6797       1.8989    1422.39890       1.6794       1.8983
   1422.38364       1.5539       1.7795    1422.38364       1.5536       1.7789
   1422.36838       1.6524       1.7017    1422.36838       1.6520       1.7012
   1422.35312       1.5423       1.6084    1422.35312       1.5420       1.6079
   1422.33787       1.5081       1.4837    1422.33787       1.5077       1.4833
   1422.32261       1.3316       1.4746    1422.32261       1.3313       1.4741
   1422.30735       1.3486       1.4722    1422.30735       1.3483       1.4717
   1422.29209       1.2633       1.3127    1422.29209       1.2630       1.3123
   1422.27683       1.1872       1.2580    1422.27683       1.1870       1.2576
   1422.26157       1.2155       1.1772    1422.26157       1.2153       1.1768
   1422.24631       1.0727       1.0903    1422.24631       1.0725       1.0900
   1422.23105       1.0942       1.0720    1422.23105       1.0940       1.0716
   1422.21580       1.0026       1.0248    1422.21580       1.0024       1.0244
   1422.20054       0.9777       0.9521    1422.20054       0.9775       0.9518
   1422.18528       0.9451       0.8628    1422.18528       0.9449       0.8625
   1422.17002       0.8929       0.8341    1422.17002       0.8927       0.8339
   1422.15476       0.8150       0.8682    1422.15476       0.8148       0.8679
   1422.13950       0.8465       0.7148    1422.13950       0.8464       0.7146
   1422.12424       0.7494       0.7923    1422.12424       0.7492       0.7921
   1422.10898       0.6234       0.7007    1422.10898       0.6233       0.7005
   1422.09373       0.7957       0.6660    1422.09373       0.7955       0.6658
   1422.07847       0.8011       0.6783    1422.07847       0.8009       0.6781
   1422.06321       0.6964       0.6457    1422.06321       0.6962       0.6455
   1422.04795       0.7015       0.5721    1422.04795       0.7014       0.5719
   1422.03269       0.6117       0.6216    1422.03269       0.6116       0.6214
   1422.01743       0.6955       0.4832    1422.01743       0.6954       0.4830
   1422.00217       0.7417       0.5357    1422.00217       0.7415       0.5355
   1421.98691       0.6458       0.5718    1421.98691       0.6457       0.5716
   1421.97166       0.6380       0.5096    1421.97166       0.6378       0.5094
   1421.95640       0.6307       0.5685    1421.95640       0.6305       0.5683
   1421.94114       0.5789       0.5557    1421.94114       0.5788       0.5555
   1421.92588       0.5987       0.5777    1421.92588       0.5986       0.5775
   1421.91062       0.6318       0.5485    1421.91062       0.6317       0.5484
   1421.89536       0.6133       0.5949    1421.89536       0.6132       0.5947
   1421.88010       0.6174       0.5381    1421.88010       0.6173       0.5379
   1421.86484       0.5895       0.5795    1421.86484       0.5894       0.5793
   1421.84958       0.6231       0.6000    1421.84958       0.6229       0.5998
   1421.83433       0.6852       0.5294    1421.83433       0.6851       0.5293
   1421.81907       0.5378       0.5531    1421.81907       0.5377       0.5529
   1421.80381       0.6536       0.4795    1421.80381       0.6535       0.4793
   1421.78855       0.7099       0.5327    1421.78855       0.7097       0.5326
   1421.77329       0.6789       0.5866    1421.77329       0.6788       0.5864
   1421.75803       0.6452       0.5012    1421.75803       0.6451       0.5011
   1421.74277       0.6224       0.5663    1421.74277       0.6222       0.5661
   1421.72751       0.5763       0.5304    1421.72751       0.5762       0.5302
   1421.71226       0.6200       0.5090    1421.71226       0.6199       0.5088
   1421.69700       0.6456       0.5228    1421.69700       0.6454       0.5227
   1421.68174       0.5949       0.4504    1421.68174       0.5947       0.4503
   1421.66648       0.6124       0.5027    1421.66648       0.6122       0.5025
   1421.65122       0.6160       0.5698    1421.65122       0.6159       0.5696
   1421.63596       0.6267       0.5213    1421.63596       0.6266       0.5212
   1421.62070       0.5212       0.5159    1421.62070       0.5211       0.5158
   1421.60544       0.6238       0.5134    1421.60544       0.6237       0.5133
   1421.59019       0.6097       0.5620    1421.59019       0.6096       0.5618
   1421.57493       0.6314       0.5318    1421.57493       0.6313       0.5316
   1421.55967       0.6192       0.4406    1421.55967       0.6190       0.4405
   1421.54441       0.5684       0.5019    1421.54441       0.5683       0.5017
   1421.52915       0.6395       0.5248    1421.52915       0.6394       0.5246
   1421.51389       0.5688       0.4572    1421.51389       0.5687       0.4571
   1421.49863       0.5640       0.5385    1421.49863       0.5639       0.5383
   1421.48337       0.6507       0.5823    1421.48337       0.6505       0.5822
   1421.46812       0.6107       0.4758    1421.46812       0.6105       0.4756
   1421.45286       0.6535       0.4942    1421.45286       0.6534       0.4940
   1421.43760       0.6509       0.4847    1421.43760       0.6508       0.4845
   1421.42234       0.6132       0.5016    1421.42234       0.6131       0.5015
   1421.40708       0.6250       0.4257    1421.40708       0.6249       0.4256
   1421.39182       0.6519       0.4939    1421.39182       0.6518       0.4937
   1421.37656       0.5916       0.4639    1421.37656       0.5915       0.4637
   1421.36130       0.6413       0.4203    1421.36130       0.6412       0.4201
   1421.34604       0.6223       0.4189    1421.34604       0.6222       0.4188
   1421.33079       0.6623       0.4250    1421.33079       0.6621       0.4249
   1421.31553       0.6724       0.4285    1421.31553       0.6722       0.4283
   1421.30027       0.6248       0.4249    1421.30027       0.6247       0.4248
   1421.28501       0.6935       0.4897    1421.28501       0.6933       0.4895
   1421.26975       0.6095       0.4807    1421.26975       0.6094       0.4806
   1421.25449       0.6131       0.4360    1421.25449       0.6130       0.4359
   1421.23923       0.5936       0.5573    1421.23923       0.5934       0.5571
   1421.22397       0.6612       0.4686    1421.22397       0.6611       0.4684
   1421.20872       0.6507       0.5102    1421.20872       0.6505       0.5100
   1421.19346       0.6538       0.4154    1421.19346       0.6537       0.4153
   1421.17820       0.6421       0.4985    1421.17820       0.6420       0.4983
   1421.16294       0.6221       0.4169    1421.16294       0.6220       0.4168
   1421.14768       0.6065       0.4285    1421.14768       0.6064       0.4284
   1421.13242       0.6070       0.5125    1421.13242       0.6069       0.5123
   1421.11716       0.6286       0.4114    1421.11716       0.6285       0.4113
   1421.10190       0.6058       0.5148    1421.10190       0.6057       0.5146
   1421.08665       0.5562       0.4941    1421.08665       0.5561       0.4939
   1421.07139       0.6170       0.4503    1421.07139       0.6169       0.4501
   1421.05613       0.6621       0.4693    1421.05613       0.6620       0.4691
   1421.04087       0.7028       0.4730    1421.04087       0.7026       0.4728
   1421.02561       0.7202       0.4637    1421.02561       0.7200       0.4636
   1421.01035       0.6826       0.3806    1421.01035       0.6824       0.3805
   1420.99509       0.5501       0.4020    1420.99509       0.5499       0.4019
   1420.97983       0.5918       0.3767    1420.97983       0.5917       0.3766
   1420.96458       0.5815       0.3708    1420.96458       0.5814       0.3707
   1420.94932       0.5957       0.3949    1420.94932       0.5956       0.3948
   1420.93406       0.5410       0.4419    1420.93406       0.5409       0.4418
   1420.91880       0.5788       0.3789    1420.91880       0.5787       0.3788
   1420.90354       0.5403       0.2918    1420.90354       0.5402       0.2917
   1420.88828       0.5168       0.3205    1420.88828       0.5167       0.3204
   1420.87302       0.5093       0.3296    1420.87302       0.5092       0.3295
   1420.85776       0.4927       0.2716    1420.85776       0.4926       0.2715
   1420.84250       0.5309       0.3115    1420.84250       0.5308       0.3114
   1420.82725       0.4768       0.2774    1420.82725       0.4767       0.2773
   1420.81199       0.4759       0.2623    1420.81199       0.4758       0.2622
   1420.79673       0.4310       0.2389    1420.79673       0.4309       0.2388
   1420.78147       0.5396       0.2440    1420.78147       0.5394       0.2439
   1420.76621       0.5285       0.2304    1420.76621       0.5284       0.2303
   1420.75095       0.5679       0.2179    1420.75095       0.5678       0.2178
   1420.73569       0.5993       0.3836    1420.73569       0.5992       0.3835
   1420.72043       0.5652       0.3140    1420.72043       0.5651       0.3139
   1420.70518       0.5348       0.4026    1420.70518       0.5347       0.4025
   1420.68992       0.6661       0.6108    1420.68992       0.6660       0.6106
   1420.67466       0.9041       0.8155    1420.67466       0.9039       0.8152
   1420.65940       1.1806       0.9965    1420.65940       1.1804       0.9962
   1420.64414       1.3782       1.2630    1420.64414       1.3779       1.2626
   1420.62888       1.4697       1.4340    1420.62888       1.4694       1.4335
   1420.61362       1.5221       1.5375    1420.61362       1.5217       1.5370
   1420.59836       1.5856       1.6375    1420.59836       1.5852       1.6370
   1420.58311       1.5528       1.5878    1420.58311       1.5524       1.5873
   1420.56785       1.5369       1.6566    1420.56785       1.5366       1.6561
   1420.55259       1.5936       1.7088    1420.55259       1.5933       1.7083
   1420.53733       1.0553       0.8062    1420.53733       1.0551       0.8059
   1420.52207       0.5382       0.2493    1420.52207       0.5381       0.2492
   1420.50681       0.2333      -0.1078    1420.50681       0.2332      -0.1078
   1420.49155      -0.0050      -0.4898    1420.49155      -0.0050      -0.4896
   1420.47629      -0.4498      -0.9884    1420.47629      -0.4497      -0.9881
   1420.46104      -0.4007      -0.9347    1420.46104      -0.4006      -0.9344
   1420.44578      -0.1791      -0.5911    1420.44578      -0.1791      -0.5909
   1420.43052      -0.3883      -0.7765    1420.43052      -0.3882      -0.7763
   1420.41526      -0.6559      -1.0572    1420.41526      -0.6558      -1.0569
   1420.40000      -0.9532      -1.5469    1420.40000      -0.9530      -1.5464
   1420.38474      -1.0599      -1.6513    1420.38474      -1.0597      -1.6508
   1420.36948       1.5524       1.6968    1420.36948       1.5520       1.6963
   1420.35422       4.8121       5.7976    1420.35422       4.8111       5.7957
   1420.33896       1.4888       1.6389    1420.33896       1.4885       1.6384
   1420.32371       0.8458       0.7610    1420.32371       0.8456       0.7608
   1420.30845       0.8470       0.8747    1420.30845       0.8468       0.8744
   1420.29319       0.8097       0.7051    1420.29319       0.8096       0.7048
   1420.27793       0.6854       0.5136    1420.27793       0.6853       0.5134
   1420.26267       0.6178       0.4284    1420.26267       0.6177       0.4283
   1420.24741       0.6123       0.3923    1420.24741       0.6122       0.3922
   1420.23215       0.5328       0.3606    1420.23215       0.5327       0.3605
   1420.21689       0.5023       0.3536    1420.21689       0.5022       0.3534
   1420.20164       0.5588       0.3633    1420.20164       0.5586       0.3632
   1420.18638       0.6050       0.2914    1420.18638       0.6049       0.2913
   1420.17112       0.5507       0.4214    1420.17112       0.5505       0.4213
   1420.15586       0.5801       0.3109    1420.15586       0.5799       0.3108
   1420.14060       0.6294       0.4236    1420.14060       0.6293       0.4234
   1420.12534       0.5859       0.3919    1420.12534       0.5858       0.3917
   1420.11008       0.6050       0.4868    1420.11008       0.6048       0.4867
   1420.09482       0.6345       0.4186    1420.09482       0.6344       0.4185
   1420.07957       0.6557       0.4468    1420.07957       0.6555       0.4467
   1420.06431       0.6326       0.4736    1420.06431       0.6325       0.4735
   1420.04905       0.6477       0.4429    1420.04905       0.6476       0.4428
   1420.03379       0.6154       0.4474    1420.03379       0.6153       0.4473
   1420.01853       0.6711       0.4504    1420.01853       0.6710       0.4503
   1420.00327       0.6452       0.3991    1420.00327       0.6451       0.3989
   1419.98801       0.6350       0.5206    1419.98801       0.6348       0.5204
   1419.97275       0.6607       0.4016    1419.97275       0.6606       0.4015
   1419.95750       0.6014       0.4393    1419.95750       0.6013       0.4392
   1419.94224       0.7049       0.4165    1419.94224       0.7048       0.4163
   1419.92698       0.6730       0.3557    1419.92698       0.6729       0.3556
   1419.91172       0.6766       0.4701    1419.91172       0.6764       0.4699
   1419.89646       0.6570       0.4350    1419.89646       0.6568       0.4349
   1419.88120       0.6878       0.3833    1419.88120       0.6876       0.3832
   1419.86594       0.7536       0.4930    1419.86594       0.7534       0.4928
   1419.85068       0.6640       0.4773    1419.85068       0.6639       0.4772
   1419.83542       0.7226       0.4420    1419.83542       0.7224       0.4419
   1419.82017       0.7202       0.4488    1419.82017       0.7200       0.4486
   1419.80491       0.7687       0.4952    1419.80491       0.7685       0.4951
   1419.78965       0.7278       0.4682    1419.78965       0.7277       0.4681
   1419.77439       0.7244       0.4368    1419.77439       0.7242       0.4367
   1419.75913       0.6265       0.5154    1419.75913       0.6264       0.5152
   1419.74387       0.7211       0.4807    1419.74387       0.7209       0.4806
   1419.72861       0.6775       0.4434    1419.72861       0.6774       0.4433
   1419.71335       0.7201       0.5275    1419.71335       0.7200       0.5274
   1419.69810       0.6230       0.4395    1419.69810       0.6228       0.4393
   1419.68284       0.7226       0.4880    1419.68284       0.7224       0.4879
   1419.66758       0.6968       0.5022    1419.66758       0.6967       0.5020
   1419.65232       0.7203       0.5198    1419.65232       0.7201       0.5196
   1419.63706       0.7170       0.4015    1419.63706       0.7168       0.4014
   1419.62180       0.7389       0.4279    1419.62180       0.7388       0.4277
   1419.60654       0.6724       0.4828    1419.60654       0.6722       0.4826
   1419.59128       0.6779       0.4596    1419.59128       0.6777       0.4595
   1419.57603       0.6989       0.5334    1419.57603       0.6988       0.5333
   1419.56077       0.6664       0.4742    1419.56077       0.6663       0.4740
   1419.54551       0.6232       0.4670    1419.54551       0.6231       0.4668
   1419.53025       0.7119       0.5023    1419.53025       0.7117       0.5021
   1419.51499       0.7107       0.4608    1419.51499       0.7105       0.4607
   1419.49973       0.6970       0.4692    1419.49973       0.6968       0.4690
   1419.48447       0.7676       0.5071    1419.48447       0.7674       0.5070
   1419.46921       0.7366       0.5023    1419.46921       0.7365       0.5022
   1419.45396       0.7094       0.3747    1419.45396       0.7093       0.3746
   1419.43870       0.7946       0.3256    1419.43870       0.7944       0.3255
   1419.42344       0.6731       0.4398    1419.42344       0.6729       0.4397
   1419.40818       0.7178       0.3909    1419.40818       0.7176       0.3908
   1419.39292       0.7693       0.4687    1419.39292       0.7691       0.4685
   1419.37766       0.6815       0.4773    1419.37766       0.6814       0.4771
   1419.36240       0.6659       0.5674    1419.36240       0.6657       0.5672
   1419.34714       0.7745       0.5176    1419.34714       0.7743       0.5174
   1419.33188       0.6649       0.5283    1419.33188       0.6647       0.5281
   1419.31663       0.6756       0.5000    1419.31663       0.6755       0.4998
   1419.30137       0.6910       0.5841    1419.30137       0.6908       0.5839
   1419.28611       0.6544       0.3955    1419.28611       0.6543       0.3953
   1419.27085       0.7263       0.4903    1419.27085       0.7262       0.4901
   1419.25559       0.6644       0.4063    1419.25559       0.6642       0.4062
   1419.24033       0.7198       0.5335    1419.24033       0.7196       0.5333
   1419.22507       0.6867       0.4944    1419.22507       0.6866       0.4943
   1419.20981       0.6581       0.5135    1419.20981       0.6579       0.5134
   1419.19456       0.6896       0.4119    1419.19456       0.6895       0.4118
   1419.17930       0.6656       0.4897    1419.17930       0.6654       0.4895
   1419.16404       0.7100       0.4531    1419.16404       0.7099       0.4529
   1419.14878       0.7578       0.5571    1419.14878       0.7577       0.5570
   1419.13352       0.7011       0.5256    1419.13352       0.7009       0.5254
   1419.11826       0.6019       0.4083    1419.11826       0.6017       0.4082
   1419.10300       0.7380       0.4873    1419.10300       0.7379       0.4872
   1419.08774       0.6432       0.5126    1419.08774       0.6431       0.5125
   1419.07249       0.6644       0.5298    1419.07249       0.6642       0.5297
   1419.05723       0.6738       0.5562    1419.05723       0.6736       0.5561
   1419.04197       0.7433       0.5220    1419.04197       0.7431       0.5218
   1419.02671       0.6855       0.5153    1419.02671       0.6853       0.5151
   1419.01145       0.6525       0.5254    1419.01145       0.6524       0.5252
   1418.99619       0.7753       0.5555    1418.99619       0.7752       0.5553
   1418.98093       0.6683       0.5328    1418.98093       0.6681       0.5326
   1418.96567       0.7326       0.4798    1418.96567       0.7324       0.4796
   1418.95042       0.7026       0.5064    1418.95042       0.7024       0.5062
   1418.93516       0.7323       0.6091    1418.93516       0.7321       0.6089
   1418.91990       0.6758       0.5832    1418.91990       0.6756       0.5830
   1418.90464       0.7196       0.5235    1418.90464       0.7194       0.5233
   1418.88938       0.6746       0.6480    1418.88938       0.6744       0.6478
   1418.87412       0.6382       0.4409    1418.87412       0.6381       0.4407
   1418.85886       0.6617       0.5592    1418.85886       0.6616       0.5590
   1418.84360       0.6765       0.6596    1418.84360       0.6764       0.6593
   1418.82834       0.7120       0.5510    1418.82834       0.7119       0.5508
   1418.81309       0.7035       0.6587    1418.81309       0.7033       0.6585
   1418.79783       0.6741       0.6179    1418.79783       0.6739       0.6177
   1418.78257       0.7425       0.5552    1418.78257       0.7424       0.5551
   1418.76731       0.6478       0.4991    1418.76731       0.6477       0.4990
   1418.75205       0.6822       0.6264    1418.75205       0.6821       0.6262
   1418.73679       0.6443       0.5379    1418.73679       0.6442       0.5378
   1418.72153       0.7129       0.5472    1418.72153       0.7128       0.5470
   1418.70627       0.6777       0.6534    1418.70627       0.6775       0.6532
   1418.69102       0.6324       0.6310    1418.69102       0.6322       0.6308
   1418.67576       0.6936       0.5825    1418.67576       0.6934       0.5823
   1418.66050       0.6189       0.6060    1418.66050       0.6187       0.6058
   1418.64524       0.6854       0.6144    1418.64524       0.6853       0.6142
   1418.62998       0.6557       0.6456    1418.62998       0.6555       0.6454
   1418.61472       0.6455       0.6259    1418.61472       0.6453       0.6257
   1418.59946       0.6184       0.5441    1418.59946       0.6182       0.5439
   1418.58420       0.6696       0.6117    1418.58420       0.6694       0.6115
   1418.56895       0.6626       0.5248    1418.56895       0.6625       0.5246
   1418.55369       0.6229       0.5702    1418.55369       0.6228       0.5700
   1418.53843       0.6852       0.7075    1418.53843       0.6851       0.7073
   1418.52317       0.5766       0.5197    1418.52317       0.5764       0.5195
   1418.50791       0.5578       0.5976    1418.50791       0.5576       0.5974
   1418.49265       0.6307       0.6877    1418.49265       0.6306       0.6875
   1418.47739       0.6661       0.6373    1418.47739       0.6659       0.6371
   1418.46213       0.6274       0.5908    1418.46213       0.6273       0.5906
   1418.44687       0.5786       0.5166    1418.44687       0.5785       0.5165
   1418.43162       0.6162       0.6468    1418.43162       0.6161       0.6466
   1418.41636       0.6237       0.6583    1418.41636       0.6235       0.6581
   1418.40110       0.6330       0.6243    1418.40110       0.6329       0.6241
   1418.38584       0.6857       0.7460    1418.38584       0.6855       0.7458
   1418.37058       0.6787       0.6329    1418.37058       0.6786       0.6327
   1418.35532       0.6799       0.6751    1418.35532       0.6797       0.6749
   1418.34006       0.6697       0.6368    1418.34006       0.6696       0.6366
   1418.32480       0.6742       0.7398    1418.32480       0.6740       0.7396
   1418.30955       0.6949       0.7525    1418.30955       0.6947       0.7523
   1418.29429       0.6916       0.6395    1418.29429       0.6915       0.6393
   1418.27903       0.5648       0.6625    1418.27903       0.5647       0.6622
   1418.26377       0.5768       0.6069    1418.26377       0.5767       0.6067
   1418.24851       0.5922       0.6734    1418.24851       0.5921       0.6732
   1418.23325       0.6993       0.6589    1418.23325       0.6992       0.6587
   1418.21799       0.6117       0.6177    1418.21799       0.6115       0.6175
   1418.20273       0.6738       0.6234    1418.20273       0.6736       0.6232
   1418.18748       0.6807       0.6856    1418.18748       0.6806       0.6854
   1418.17222       0.6887       0.6769    1418.17222       0.6885       0.6767
   1418.15696       0.6551       0.6320    1418.15696       0.6550       0.6318
   1418.14170       0.6325       0.6505    1418.14170       0.6324       0.6503
   1418.12644       0.6839       0.6393    1418.12644       0.6838       0.6391
   1418.11118       0.5244       0.6570    1418.11118       0.5243       0.6568
   1418.09592       0.5763       0.6223    1418.09592       0.5762       0.6221
   1418.08066       0.6059       0.7235    1418.08066       0.6058       0.7233
   1418.06541       0.7013       0.6779    1418.06541       0.7011       0.6777
   1418.05015       0.6491       0.7358    1418.05015       0.6490       0.7356
   1418.03489       0.6778       0.6408    1418.03489       0.6777       0.6406
   1418.01963       0.5460       0.5630    1418.01963       0.5459       0.5628
   1418.00437       0.6156       0.5841    1418.00437       0.6155       0.5839
   1417.98911       0.6817       0.8063    1417.98911       0.6816       0.8060
   1417.97385       0.5934       0.8552    1417.97385       0.5933       0.8549
   1417.95859       0.5058       0.6807    1417.95859       0.5057       0.6805
   1417.94333       0.5838       0.7575    1417.94333       0.5837       0.7573
   1417.92808       0.6059       0.6653    1417.92808       0.6057       0.6651
   1417.91282       0.6660       0.6652    1417.91282       0.6658       0.6650
   1417.89756       0.6136       0.7336    1417.89756       0.6134       0.7334
   1417.88230       0.5907       0.7171    1417.88230       0.5906       0.7169
   1417.86704       0.5822       0.6779    1417.86704       0.5821       0.6777
   1417.85178       0.5665       0.6713    1417.85178       0.5664       0.6711
   1417.83652       0.5491       0.7445    1417.83652       0.5490       0.7442
   1417.82126       0.6819       0.7369    1417.82126       0.6818       0.7367
   1417.80601       0.7006       0.7232    1417.80601       0.7005       0.7230
   1417.79075       0.6930       0.6913    1417.79075       0.6929       0.6911
   1417.77549       0.6205       0.7243    1417.77549       0.6204       0.7241
   1417.76023       0.6032       0.6769    1417.76023       0.6030       0.6767
   1417.74497       0.5215       0.7182    1417.74497       0.5214       0.7180
   1417.72971       0.5366       0.7099    1417.72971       0.5365       0.7096
   1417.71445       0.6111       0.7247    1417.71445       0.6110       0.7244
   1417.69919       0.6697       0.7308    1417.69919       0.6696       0.7306
   1417.68394       0.6088       0.7130    1417.68394       0.6086       0.7128
   1417.66868       0.6156       0.7599    1417.66868       0.6154       0.7596
   1417.65342       0.5442       0.6615    1417.65342       0.5441       0.6613
   1417.63816       0.6394       0.7753    1417.63816       0.6393       0.7751
   1417.62290       0.6460       0.6890    1417.62290       0.6459       0.6888
   1417.60764       0.7224       0.6448    1417.60764       0.7222       0.6446
   1417.59238       0.6191       0.6584    1417.59238       0.6189       0.6582
   1417.57712       0.5924       0.7070    1417.57712       0.5922       0.7067
   1417.56187       0.5588       0.6077    1417.56187       0.5587       0.6075
   1417.54661       0.5380       0.7406    1417.54661       0.5379       0.7403
   1417.53135       0.5872       0.7198    1417.53135       0.5871       0.7195
   1417.51609       0.6051       0.6698    1417.51609       0.6049       0.6696
   1417.50083       0.5461       0.7604    1417.50083       0.5460       0.7601
   1417.48557       0.5507       0.7705    1417.48557       0.5506       0.7703
   1417.47031       0.5705       0.7647    1417.47031       0.5704       0.7645
   1417.45505       0.5716       0.7711    1417.45505       0.5715       0.7708
   1417.43979       0.6312       0.7152    1417.43979       0.6310       0.7149
   1417.42454       0.6170       0.6989    1417.42454       0.6169       0.6987
   1417.40928       0.6172       0.6688    1417.40928       0.6170       0.6686
   1417.39402       0.5626       0.7379    1417.39402       0.5625       0.7377
   1417.37876       0.5920       0.7665    1417.37876       0.5919       0.7663
   1417.36350       0.6008       0.7179    1417.36350       0.6007       0.7177
   1417.34824       0.6689       0.7749    1417.34824       0.6688       0.7747
   1417.33298       0.5262       0.6749    1417.33298       0.5261       0.6747
   1417.31772       0.5367       0.7552    1417.31772       0.5366       0.7549
   1417.30247       0.6848       0.7757    1417.30247       0.6847       0.7755
   1417.28721       0.5773       0.7463    1417.28721       0.5771       0.7461
   1417.27195       0.5167       0.7365    1417.27195       0.5165       0.7363
   1417.25669       0.5517       0.7785    1417.25669       0.5516       0.7783
   1417.24143       0.6157       0.7897    1417.24143       0.6156       0.7895
   1417.22617       0.6058       0.7730    1417.22617       0.6057       0.7728
   1417.21091       0.5677       0.7214    1417.21091       0.5676       0.7212
   1417.19565       0.5989       0.6840    1417.19565       0.5988       0.6838
   1417.18040       0.6250       0.6835    1417.18040       0.6249       0.6832
   1417.16514       0.6507       0.7432    1417.16514       0.6506       0.7430
   1417.14988       0.6263       0.7023    1417.14988       0.6262       0.7021
   1417.13462       0.6091       0.7068    1417.13462       0.6090       0.7066
   1417.11936       0.5349       0.6969    1417.11936       0.5348       0.6967
   1417.10410       0.5873       0.7173    1417.10410       0.5872       0.7170
   1417.08884       0.6488       0.6893    1417.08884       0.6487       0.6891
   1417.07358       0.5385       0.6949    1417.07358       0.5384       0.6947
   1417.05833       0.6040       0.6994    1417.05833       0.6039       0.6992
   1417.04307       0.6384       0.6932    1417.04307       0.6383       0.6930
   1417.02781       0.6581       0.7664    1417.02781       0.6580       0.7662
   1417.01255       0.6443       0.7333    1417.01255       0.6441       0.7331
   1416.99729       0.6213       0.7120    1416.99729       0.6212       0.7118
   1416.98203       0.6306       0.7068    1416.98203       0.6305       0.7066
   1416.96677       0.6316       0.7203    1416.96677       0.6314       0.7201
   1416.95151       0.5803       0.6831    1416.95151       0.5801       0.6829
   1416.93625       0.5178       0.6854    1416.93625       0.5177       0.6852
   1416.92100       0.6034       0.6696    1416.92100       0.6032       0.6694
   1416.90574       0.6055       0.6676    1416.90574       0.6054       0.6674
   1416.89048       0.6564       0.7523    1416.89048       0.6562       0.7521
   1416.87522       0.5507       0.7269    1416.87522       0.5506       0.7266
   1416.85996       0.5587       0.7426    1416.85996       0.5586       0.7424
   1416.84470       0.5029       0.7363    1416.84470       0.5028       0.7361
   1416.82944       0.5458       0.7069    1416.82944       0.5457       0.7067
   1416.81418       0.6152       0.6788    1416.81418       0.6151       0.6786
   1416.79893       0.5978       0.7451    1416.79893       0.5977       0.7449
   1416.78367       0.6314       0.7106    1416.78367       0.6313       0.7104
   1416.76841       0.6114       0.7327    1416.76841       0.6112       0.7324
   1416.75315       0.6262       0.7335    1416.75315       0.6261       0.7333
   1416.73789       0.5074       0.7404    1416.73789       0.5073       0.7402
   1416.72263       0.6630       0.7000    1416.72263       0.6629       0.6998
   1416.70737       0.6940       0.7705    1416.70737       0.6938       0.7702
   1416.69211       0.6303       0.7634    1416.69211       0.6301       0.7631
   1416.67686       0.5441       0.6837    1416.67686       0.5440       0.6835
   1416.66160       0.5863       0.7062    1416.66160       0.5862       0.7059
   1416.64634       0.6245       0.7550    1416.64634       0.6243       0.7547
   1416.63108       0.6142       0.7333    1416.63108       0.6140       0.7330
   1416.61582       0.6037       0.6873    1416.61582       0.6036       0.6871
   1416.60056       0.6354       0.7403    1416.60056       0.6352       0.7401
   1416.58530       0.5664       0.7158    1416.58530       0.5663       0.7155
   1416.57004       0.6491       0.6757    1416.57004       0.6489       0.6755
   1416.55479       0.6244       0.7530    1416.55479       0.6243       0.7528
   1416.53953       0.6570       0.7637    1416.53953       0.6569       0.7634
   1416.52427       0.6529       0.7621    1416.52427       0.6528       0.7619
   1416.50901       0.5783       0.7154    1416.50901       0.5782       0.7152
   1416.49375       0.6264       0.6878    1416.49375       0.6262       0.6875
   1416.47849       0.6335       0.6162    1416.47849       0.6334       0.6160
   1416.46323       0.6188       0.6921    1416.46323       0.6186       0.6919
   1416.44797       0.5431       0.7224    1416.44797       0.5429       0.7222
   1416.43271       0.5969       0.6816    1416.43271       0.5968       0.6813
   1416.41746       0.6331       0.7398    1416.41746       0.6329       0.7395
   1416.40220       0.6330       0.6975    1416.40220       0.6329       0.6973
   1416.38694       0.6724       0.6844    1416.38694       0.6722       0.6842
   1416.37168       0.6005       0.6885    1416.37168       0.6004       0.6883
   1416.35642       0.6041       0.6579    1416.35642       0.6040       0.6577
   1416.34116       0.7029       0.6313    1416.34116       0.7028       0.6311
   1416.32590       0.6643       0.6167    1416.32590       0.6642       0.6166
   1416.31064       0.7356       0.6886    1416.31064       0.7355       0.6884
   1416.29539       0.6381       0.6221    1416.29539       0.6380       0.6220
   1416.28013       0.6447       0.6893    1416.28013       0.6446       0.6891
   1416.26487       0.6597       0.7313    1416.26487       0.6596       0.7311
   1416.24961       0.5835       0.6119    1416.24961       0.5834       0.6117
   1416.23435       0.6376       0.6499    1416.23435       0.6375       0.6497
   1416.21909       0.6590       0.6425    1416.21909       0.6589       0.6423
   1416.20383       0.6354       0.5790    1416.20383       0.6352       0.5789
   1416.18857       0.6620       0.6088    1416.18857       0.6619       0.6086
   1416.17332       0.6648       0.6787    1416.17332       0.6647       0.6785
   1416.15806       0.6088       0.6759    1416.15806       0.6087       0.6757
   1416.14280       0.7168       0.7560    1416.14280       0.7166       0.7558
   1416.12754       0.6869       0.6508    1416.12754       0.6868       0.6506
   1416.11228       0.5929       0.6333    1416.11228       0.5927       0.6331
   1416.09702       0.6771       0.6164    1416.09702       0.6770       0.6162
   1416.08176       0.7008       0.7000    1416.08176       0.7007       0.6998
   1416.06650       0.6648       0.6344    1416.06650       0.6646       0.6342
   1416.05125       0.6672       0.6867    1416.05125       0.6671       0.6865
   1416.03599       0.6042       0.6662    1416.03599       0.6040       0.6660
   1416.02073       0.7456       0.6471    1416.02073       0.7454       0.6469
   1416.00547       0.6522       0.6419    1416.00547       0.6521       0.6417
   1415.99021       0.6376       0.6326    1415.99021       0.6375       0.6324
   1415.97495       0.6838       0.6233    1415.97495       0.6837       0.6231
   1415.95969       0.7112       0.6340    1415.95969       0.7111       0.6338
   1415.94443       0.7191       0.6194    1415.94443       0.7189       0.6193
   1415.92917       0.6964       0.6032    1415.92917       0.6963       0.6030
   1415.91392       0.6594       0.6171    1415.91392       0.6593       0.6169
   1415.89866       0.6884       0.6413    1415.89866       0.6882       0.6411
   1415.88340       0.7030       0.5780    1415.88340       0.7028       0.5778
   1415.86814       0.6490       0.5930    1415.86814       0.6489       0.5928
   1415.85288       0.6913       0.5578    1415.85288       0.6912       0.5576
   1415.83762       0.5942       0.6497    1415.83762       0.5941       0.6495
   1415.82236       0.6133       0.6570    1415.82236       0.6132       0.6568
   1415.80710       0.6124       0.6065    1415.80710       0.6123       0.6063
   1415.79185       0.7267       0.6728    1415.79185       0.7266       0.6726
   1415.77659       0.5874       0.6524    1415.77659       0.5873       0.6522
   1415.76133       0.6522       0.6486    1415.76133       0.6521       0.6484
   1415.74607       0.6616       0.5812    1415.74607       0.6615       0.5811
   1415.73081       0.6096       0.6020    1415.73081       0.6095       0.6018
   1415.71555       0.6760       0.6452    1415.71555       0.6759       0.6450
   1415.70029       0.7206       0.6045    1415.70029       0.7204       0.6043
   1415.68503       0.6860       0.5815    1415.68503       0.6859       0.5813
   1415.66978       0.7044       0.6429    1415.66978       0.7042       0.6427
   1415.65452       0.6572       0.6089    1415.65452       0.6570       0.6087
   1415.63926       0.6604       0.5748    1415.63926       0.6603       0.5747
   1415.62400       0.7011       0.5570    1415.62400       0.7009       0.5568
   1415.60874       0.6484       0.5837    1415.60874       0.6482       0.5835
   1415.59348       0.6878       0.5971    1415.59348       0.6877       0.5969
   1415.57822       0.6585       0.5405    1415.57822       0.6584       0.5403
   1415.56296       0.6718       0.5907    1415.56296       0.6716       0.5905
   1415.54771       0.7247       0.6354    1415.54771       0.7246       0.6352
   1415.53245       0.6443       0.6178    1415.53245       0.6442       0.6176
   1415.51719       0.6957       0.6578    1415.51719       0.6956       0.6576
   1415.50193       0.6569       0.4890    1415.50193       0.6568       0.4888
   1415.48667       0.6634       0.5349    1415.48667       0.6632       0.5347
   1415.47141       0.7172       0.6219    1415.47141       0.7170       0.6217
   1415.45615       0.6607       0.5565    1415.45615       0.6606       0.5563
   1415.44089       0.7409       0.6132    1415.44089       0.7408       0.6130
   1415.42563       0.6980       0.6204    1415.42563       0.6979       0.6202
   1415.41038       0.7266       0.6955    1415.41038       0.7264       0.6953
   1415.39512       0.6868       0.7244    1415.39512       0.6866       0.7242
   1415.37986       0.7127       0.5826    1415.37986       0.7126       0.5824
   1415.36460       0.6855       0.6519    1415.36460       0.6854       0.6517
   1415.34934       0.6742       0.5951    1415.34934       0.6741       0.5949
   1415.33408       0.6457       0.5873    1415.33408       0.6456       0.5871
   1415.31882       0.7393       0.7239    1415.31882       0.7391       0.7236
   1415.30356       0.6741       0.6385    1415.30356       0.6739       0.6383
   1415.28831       0.6896       0.6144    1415.28831       0.6895       0.6142
   1415.27305       0.7262       0.6340    1415.27305       0.7260       0.6338
   1415.25779       0.7080       0.5349    1415.25779       0.7078       0.5347
   1415.24253       0.7323       0.5015    1415.24253       0.7322       0.5013
   1415.22727       0.7232       0.6160    1415.22727       0.7230       0.6158
   1415.21201       0.7142       0.6358    1415.21201       0.7140       0.6356
   1415.19675       0.6681       0.6066    1415.19675       0.6679       0.6064
   1415.18149       0.7468       0.5838    1415.18149       0.7466       0.5836
   1415.16624       0.6720       0.5706    1415.16624       0.6719       0.5704
   1415.15098       0.6890       0.5233    1415.15098       0.6889       0.5231
   1415.13572       0.6658       0.5532    1415.13572       0.6657       0.5530
   1415.12046       0.7074       0.5879    1415.12046       0.7072       0.5877
   1415.10520       0.6307       0.6143    1415.10520       0.6306       0.6141
   1415.08994       0.6920       0.6343    1415.08994       0.6919       0.6341
   1415.07468       0.6404       0.6384    1415.07468       0.6403       0.6382
   1415.05942       0.6572       0.5939    1415.05942       0.6570       0.5937
   1415.04417       0.7258       0.5573    1415.04417       0.7257       0.5571
   1415.02891       0.6295       0.5702    1415.02891       0.6293       0.5700
   1415.01365       0.7063       0.5590    1415.01365       0.7062       0.5589
   1414.99839       0.7155       0.5977    1414.99839       0.7153       0.5975
   1414.98313       0.6848       0.5628    1414.98313       0.6846       0.5626
   1414.96787       0.6591       0.5405    1414.96787       0.6590       0.5403
   1414.95261       0.7493       0.7006    1414.95261       0.7492       0.7004
   1414.93735       0.6977       0.5766    1414.93735       0.6975       0.5764
   1414.92209       0.6782       0.5756    1414.92209       0.6780       0.5754
   1414.90684       0.6473       0.6012    1414.90684       0.6472       0.6010
   1414.89158       0.6769       0.6501    1414.89158       0.6767       0.6499
   1414.87632       0.7192       0.5747    1414.87632       0.7191       0.5745
   1414.86106       0.6696       0.5192    1414.86106       0.6694       0.5190
   1414.84580       0.6347       0.7170    1414.84580       0.6346       0.7168
   1414.83054       0.6837       0.6095    1414.83054       0.6835       0.6093
   1414.81528       0.7021       0.5309    1414.81528       0.7020       0.5308
   1414.80002       0.7036       0.6185    1414.80002       0.7035       0.6183
   1414.78477       0.6724       0.5442    1414.78477       0.6723       0.5441
   1414.76951       0.6154       0.5761    1414.76951       0.6153       0.5759
   1414.75425       0.6468       0.6426    1414.75425       0.6467       0.6424
   1414.73899       0.6822       0.6513    1414.73899       0.6820       0.6511
   1414.72373       0.7346       0.5852    1414.72373       0.7344       0.5850
   1414.70847       0.7084       0.4667    1414.70847       0.7082       0.4666
   1414.69321       0.6457       0.6123    1414.69321       0.6455       0.6121
   1414.67795       0.7046       0.6050    1414.67795       0.7044       0.6048
   1414.66270       0.7387       0.4974    1414.66270       0.7385       0.4973
   1414.64744       0.7095       0.5208    1414.64744       0.7094       0.5207
   1414.63218       0.7112       0.6544    1414.63218       0.7111       0.6542
   1414.61692       0.7065       0.5911    1414.61692       0.7063       0.5909
   1414.60166       0.6803       0.6593    1414.60166       0.6802       0.6591
   1414.58640       0.6645       0.6239    1414.58640       0.6643       0.6237
   1414.57114       0.6319       0.5948    1414.57114       0.6318       0.5947
   1414.55588       0.7379       0.5556    1414.55588       0.7377       0.5554
   1414.54062       0.6878       0.5031    1414.54062       0.6876       0.5029
   1414.52537       0.6719       0.5087    1414.52537       0.6717       0.5086
   1414.51011       0.6770       0.6522    1414.51011       0.6769       0.6520
   1414.49485       0.6854       0.5727    1414.49485       0.6852       0.5725
   1414.47959       0.7702       0.4829    1414.47959       0.7700       0.4827
   1414.46433       0.6522       0.6094    1414.46433       0.6520       0.6093
   1414.44907       0.8201       0.6877    1414.44907       0.8199       0.6875
   1414.43381       0.8006       0.5775    1414.43381       0.8004       0.5773
   1414.41855       0.6921       0.6648    1414.41855       0.6919       0.6646
   1414.40330       0.7087       0.5202    1414.40330       0.7086       0.5200
   1414.38804       0.8385       0.6310    1414.38804       0.8383       0.6308
   1414.37278       0.6920       0.6216    1414.37278       0.6919       0.6214
   1414.35752       0.6574       0.6650    1414.35752       0.6572       0.6648
   1414.34226       0.6644       0.7431    1414.34226       0.6643       0.7429
   1414.32700       0.6831       0.6721    1414.32700       0.6829       0.6719
   1414.31174       0.6761       0.6507    1414.31174       0.6760       0.6505
   1414.29648       0.7019       0.5736    1414.29648       0.7018       0.5734
   1414.28123       0.6498       0.5586    1414.28123       0.6497       0.5584
   1414.26597       0.7420       0.6142    1414.26597       0.7419       0.6140
   1414.25071       0.7352       0.5174    1414.25071       0.7351       0.5173
   1414.23545       0.6511       0.5732    1414.23545       0.6510       0.5730
   1414.22019       0.6784       0.6774    1414.22019       0.6783       0.6772
   1414.20493       0.7278       0.6146    1414.20493       0.7277       0.6144
   1414.18967       0.7285       0.5361    1414.18967       0.7283       0.5359
   1414.17441       0.6597       0.6074    1414.17441       0.6595       0.6072
   1414.15916       0.7091       0.5371    1414.15916       0.7090       0.5369
   1414.14390       0.7229       0.6198    1414.14390       0.7227       0.6197
   1414.12864       0.6354       0.5673    1414.12864       0.6353       0.5672
   1414.11338       0.6608       0.6916    1414.11338       0.6607       0.6914
   1414.09812       0.7732       0.6230    1414.09812       0.7730       0.6228
   1414.08286       0.6565       0.6636    1414.08286       0.6563       0.6634
   1414.06760       0.6280       0.5964    1414.06760       0.6279       0.5962
   1414.05234       0.7703       0.4937    1414.05234       0.7701       0.4936
   1414.03708       0.6938       0.6486    1414.03708       0.6936       0.6484
   1414.02183       0.6554       0.6120    1414.02183       0.6552       0.6118
   1414.00657       0.7049       0.5629    1414.00657       0.7047       0.5627
   1413.99131       0.6799       0.6360    1413.99131       0.6798       0.6358
   1413.97605       0.6092       0.5949    1413.97605       0.6091       0.5947
   1413.96079       0.7473       0.6699    1413.96079       0.7472       0.6697
   1413.94553       0.7048       0.5981    1413.94553       0.7047       0.5979
   1413.93027       0.6502       0.5792    1413.93027       0.6500       0.5790
   1413.91501       0.6927       0.6469    1413.91501       0.6926       0.6467
   1413.89976       0.6941       0.6720    1413.89976       0.6940       0.6718
   1413.88450       0.7249       0.6011    1413.88450       0.7247       0.6010
   1413.86924       0.7334       0.6310    1413.86924       0.7333       0.6308
   1413.85398       0.4838       0.5923    1413.85398       0.4837       0.5921
   1413.83872       0.6651       0.6140    1413.83872       0.6650       0.6138
   1413.82346       0.6045       0.6175    1413.82346       0.6043       0.6173
   1413.80820       0.7072       0.5899    1413.80820       0.7071       0.5897
   1413.79294       0.6664       0.6394    1413.79294       0.6662       0.6392
   1413.77769       0.6587       0.5964    1413.77769       0.6585       0.5962
   1413.76243       0.7260       0.7283    1413.76243       0.7259       0.7281
   1413.74717       0.7179       0.6095    1413.74717       0.7178       0.6093
   1413.73191       0.6184       0.5440    1413.73191       0.6183       0.5439
   1413.71665       0.6878       0.5172    1413.71665       0.6877       0.5170
   1413.70139       0.6498       0.4835    1413.70139       0.6497       0.4834
   1413.68613       0.7291       0.6207    1413.68613       0.7289       0.6205
   1413.67087       0.7098       0.6738    1413.67087       0.7096       0.6736
   1413.65562       0.6851       0.6059    1413.65562       0.6849       0.6057
   1413.64036       0.6458       0.6289    1413.64036       0.6457       0.6287
   1413.62510       0.6211       0.6092    1413.62510       0.6210       0.6090
   1413.60984       0.6449       0.5935    1413.60984       0.6447       0.5933
   1413.59458       0.6379       0.6063    1413.59458       0.6377       0.6061
   1413.57932       0.6603       0.5224    1413.57932       0.6601       0.5222
   1413.56406       0.7063       0.6242    1413.56406       0.7061       0.6240
   1413.54880       0.6001       0.6717    1413.54880       0.5999       0.6715
   1413.53354       0.5969       0.7020    1413.53354       0.5968       0.7017
   1413.51829       0.6798       0.7079    1413.51829       0.6796       0.7076
   1413.50303       0.6909       0.5279    1413.50303       0.6907       0.5277
   1413.48777       0.6493       0.4826    1413.48777       0.6492       0.4824
   1413.47251       0.7026       0.6611    1413.47251       0.7024       0.6609
   1413.45725       0.7122       0.6037    1413.45725       0.7120       0.6035
   1413.44199       0.5689       0.6362    1413.44199       0.5688       0.6360
   1413.42673       0.5950       0.6448    1413.42673       0.5949       0.6446
   1413.41147       0.6381       0.6572    1413.41147       0.6380       0.6570
   1413.39622       0.6882       0.6486    1413.39622       0.6881       0.6484
