#     FILENAME=Skynet_58992_M31_25kpc_Jillian_44939_54547.A.onoff.cal.txt
#     BASENAME=Skynet_58992_M31_25kpc_Jillian_44939_54547
#      CONTROL=SKYNET
#     PROJCODE=Skynet_58992_M31_25kpc_Jillian_44939
#     DATAROOT=/raid/scratch/cyborg/SkynetData
#      DATADIR=/raid/scratch/cyborg
#     DATADIR2=/raid/scratch/cyborg/SkynetData/Skynet_58992_M31_25kpc_Jillian_
#     SCANNAME=2018_05_24_20
#     SRC_NAME=M31_25kpc_Jillian
#     OBSERVER=unioncollege_21317
#     DATE_OBS=2020-05-23T07:33:45.110
#        OBSID=44939
#      SCANNUM=54547
#          MJD=58992.3151054
#          UTC=27225
#     SCANTYPE=onoff
#     DATAMODE=HIRES
#     RECEIVER=Rx1_2
#      OBSFREQ=1395.0000
# Actual_FREQ1=1423.0000,
# Actual_FREQ2=1423.0000
#    LO1Tuning=6873.0000
#     RFFILTER=1355_1435
#        OBSBW=-15.6250
#     EFFBANDW=15.6250
#        NCHAN=1024
#    STARTCHAN=51
#     STOPCHAN=972
#         TINT=0.3000
#         TBIN=0.00026214
#       ACCLEN=2048 
#     DURATION=167.40
#     EXPOSURE=125.38
#        FOCUS=36.895
#       RA,DEC=00:36:41.99, 39:51:30.34
#      RA(deg)=7.81751
#     DEC(deg)=39.85828
#   WIDTH(deg)=2.0928x0.0314
#    AZIM(deg)=54.9967
#    ELEV(deg)=21.6299
#     COORDREF=RA_DEC_
#         HREF=9.1100
#         VREF=39.8583
#      RADESYS=FK5
#       OFFSYS=RADEC
#      EQUINOX=2000.00
#     IFATTENS=17.00, 1.00
#   BALANCELEV=1.200 
#   POWER_XLYR=[1.23, 1.33] 
#       VELDEF=RADI-OBS 
#     VELOCITY=0.000 
#         NPOL=2 
#      POLMODE=Linear 
#      POLTYPE=XXYY 
#      WARNING=None 
#     NOISECAL=HI 
#       PRECAL=2 
#      POSTCAL=2 
#     CRYOTEMP=296 
#      BOXTEMP=31 
#         TSYS=XX1:119.07, YY1:144.46
#         TSYS=XX2:119.05, YY2:144.35
#         TCAL=XX1:9.18, YY1:10.14
#         TCAL=XX2:9.18, YY2:10.14
# Calibrated spectra: Tsys*(ON-OFF)/OFF 
#                
#                
#Freq1(MHz)         XX1          YY1   Freq2(MHz)       XX2         YY2 
   1430.03430       0.8037       1.7717    1430.03430       0.8036       1.7704
   1430.01904       0.9066       1.6245    1430.01904       0.9065       1.6233
   1430.00378       0.9853       1.5336    1430.00378       0.9851       1.5325
   1429.98853       0.7840       1.8207    1429.98853       0.7839       1.8194
   1429.97327       0.8635       1.3495    1429.97327       0.8633       1.3485
   1429.95801       1.0674       1.8884    1429.95801       1.0672       1.8870
   1429.94275       0.9356       1.2757    1429.94275       0.9354       1.2748
   1429.92749       0.5701       1.8697    1429.92749       0.5700       1.8683
   1429.91223       0.7673       1.4493    1429.91223       0.7671       1.4483
   1429.89697       0.7034       1.6629    1429.89697       0.7033       1.6617
   1429.88171       0.8893       1.6984    1429.88171       0.8891       1.6971
   1429.86646       0.8345       1.5919    1429.86646       0.8344       1.5908
   1429.85120       0.7498       1.8298    1429.85120       0.7497       1.8284
   1429.83594       1.0018       1.6454    1429.83594       1.0016       1.6442
   1429.82068       0.6206       1.3597    1429.82068       0.6205       1.3587
   1429.80542       0.9112       1.8963    1429.80542       0.9110       1.8949
   1429.79016       0.9267       1.6816    1429.79016       0.9266       1.6804
   1429.77490       0.8841       1.9482    1429.77490       0.8840       1.9468
   1429.75964       0.5456       1.5872    1429.75964       0.5455       1.5860
   1429.74438       0.9640       1.3503    1429.74438       0.9638       1.3493
   1429.72913       0.6213       1.6645    1429.72913       0.6212       1.6633
   1429.71387       0.7241       1.8232    1429.71387       0.7239       1.8219
   1429.69861       0.8116       1.7324    1429.69861       0.8114       1.7311
   1429.68335       0.8737       1.8869    1429.68335       0.8736       1.8855
   1429.66809       0.5992       2.2724    1429.66809       0.5991       2.2707
   1429.65283       0.9950       1.4369    1429.65283       0.9949       1.4359
   1429.63757       0.5009       1.8555    1429.63757       0.5008       1.8542
   1429.62231       0.6693       1.7668    1429.62231       0.6692       1.7655
   1429.60706       0.6243       1.5902    1429.60706       0.6241       1.5890
   1429.59180       0.9240       1.7818    1429.59180       0.9238       1.7805
   1429.57654       0.9412       1.3525    1429.57654       0.9410       1.3515
   1429.56128       0.4740       1.6317    1429.56128       0.4739       1.6305
   1429.54602       0.9216       1.3685    1429.54602       0.9214       1.3675
   1429.53076       0.9124       1.7637    1429.53076       0.9122       1.7624
   1429.51550       0.9338       1.5052    1429.51550       0.9336       1.5041
   1429.50024       1.0236       1.7482    1429.50024       1.0234       1.7470
   1429.48499       0.7524       1.6354    1429.48499       0.7522       1.6342
   1429.46973       0.6836       1.8333    1429.46973       0.6835       1.8320
   1429.45447       0.7569       1.8023    1429.45447       0.7568       1.8010
   1429.43921       0.8063       1.3423    1429.43921       0.8061       1.3413
   1429.42395       0.4968       1.4099    1429.42395       0.4967       1.4089
   1429.40869       0.7654       1.4627    1429.40869       0.7653       1.4616
   1429.39343       0.8742       1.5126    1429.39343       0.8740       1.5115
   1429.37817       0.9160       1.5433    1429.37817       0.9158       1.5422
   1429.36292       0.7726       1.8123    1429.36292       0.7725       1.8109
   1429.34766       0.5938       1.6212    1429.34766       0.5937       1.6200
   1429.33240       0.6239       1.6942    1429.33240       0.6237       1.6930
   1429.31714       0.7248       1.6659    1429.31714       0.7246       1.6647
   1429.30188       0.7172       1.3757    1429.30188       0.7170       1.3747
   1429.28662       0.7750       1.3881    1429.28662       0.7748       1.3871
   1429.27136       0.6092       1.5675    1429.27136       0.6091       1.5663
   1429.25610       0.9198       1.5529    1429.25610       0.9196       1.5517
   1429.24084       0.4941       1.6593    1429.24084       0.4940       1.6581
   1429.22559       0.6535       1.7986    1429.22559       0.6534       1.7973
   1429.21033       0.7369       1.1655    1429.21033       0.7368       1.1647
   1429.19507       0.7170       1.3686    1429.19507       0.7169       1.3676
   1429.17981       0.6186       1.5095    1429.17981       0.6185       1.5084
   1429.16455       0.5587       1.9557    1429.16455       0.5586       1.9543
   1429.14929       0.7090       1.7140    1429.14929       0.7088       1.7127
   1429.13403       0.7647       1.8260    1429.13403       0.7645       1.8247
   1429.11877       1.0504       1.5538    1429.11877       1.0502       1.5526
   1429.10352       0.6899       1.8470    1429.10352       0.6898       1.8456
   1429.08826       0.6217       1.6884    1429.08826       0.6216       1.6872
   1429.07300       0.4100       2.1428    1429.07300       0.4099       2.1412
   1429.05774       0.6680       2.0781    1429.05774       0.6679       2.0766
   1429.04248       0.5746       1.7184    1429.04248       0.5745       1.7171
   1429.02722       0.7618       1.8475    1429.02722       0.7616       1.8461
   1429.01196       0.8496       1.8882    1429.01196       0.8495       1.8868
   1428.99670       0.7768       1.9534    1428.99670       0.7766       1.9520
   1428.98145       0.7177       1.6553    1428.98145       0.7175       1.6540
   1428.96619       0.7232       1.7656    1428.96619       0.7231       1.7643
   1428.95093       0.8075       1.3338    1428.95093       0.8074       1.3328
   1428.93567       0.6689       1.1172    1428.93567       0.6687       1.1163
   1428.92041       0.8881       1.5021    1428.92041       0.8879       1.5010
   1428.90515       0.8906       1.3170    1428.90515       0.8904       1.3160
   1428.88989       1.0005       1.7733    1428.88989       1.0003       1.7720
   1428.87463       0.6651       1.7988    1428.87463       0.6650       1.7975
   1428.85938       0.4140       1.9431    1428.85938       0.4139       1.9417
   1428.84412       0.6548       1.7642    1428.84412       0.6547       1.7629
   1428.82886       0.6683       1.4000    1428.82886       0.6682       1.3989
   1428.81360       1.0359       1.6512    1428.81360       1.0357       1.6500
   1428.79834       1.0735       1.4804    1428.79834       1.0732       1.4793
   1428.78308       0.7798       1.3418    1428.78308       0.7797       1.3408
   1428.76782       0.7047       1.6237    1428.76782       0.7045       1.6225
   1428.75256       0.9418       1.9690    1428.75256       0.9416       1.9676
   1428.73730       0.8858       1.9539    1428.73730       0.8856       1.9525
   1428.72205       0.9692       1.8559    1428.72205       0.9690       1.8546
   1428.70679       0.5791       1.8567    1428.70679       0.5790       1.8553
   1428.69153       0.8104       1.5074    1428.69153       0.8103       1.5063
   1428.67627       0.9359       1.7486    1428.67627       0.9357       1.7473
   1428.66101       0.7716       1.7351    1428.66101       0.7715       1.7339
   1428.64575       1.0633       1.7863    1428.64575       1.0631       1.7850
   1428.63049       0.8675       1.5260    1428.63049       0.8673       1.5248
   1428.61523       0.9300       1.4408    1428.61523       0.9298       1.4397
   1428.59998       0.5796       1.8194    1428.59998       0.5795       1.8181
   1428.58472       0.6067       1.7672    1428.58472       0.6066       1.7659
   1428.56946       0.8385       1.9705    1428.56946       0.8383       1.9691
   1428.55420       0.6705       1.9708    1428.55420       0.6704       1.9694
   1428.53894       0.7850       1.7158    1428.53894       0.7848       1.7146
   1428.52368       0.7086       1.9095    1428.52368       0.7084       1.9081
   1428.50842       0.8039       1.6636    1428.50842       0.8037       1.6624
   1428.49316       0.4898       1.3731    1428.49316       0.4897       1.3721
   1428.47791       0.9153       1.8786    1428.47791       0.9151       1.8772
   1428.46265       0.5426       1.4113    1428.46265       0.5425       1.4103
   1428.44739       0.6844       1.6934    1428.44739       0.6842       1.6921
   1428.43213       0.8572       1.7523    1428.43213       0.8570       1.7510
   1428.41687       1.0857       1.6994    1428.41687       1.0855       1.6981
   1428.40161       0.4695       1.4141    1428.40161       0.4694       1.4130
   1428.38635       0.7562       1.6266    1428.38635       0.7561       1.6254
   1428.37109       1.0069       1.4338    1428.37109       1.0067       1.4327
   1428.35583       0.8329       1.6882    1428.35583       0.8327       1.6870
   1428.34058       0.5933       1.7425    1428.34058       0.5932       1.7412
   1428.32532       0.7804       1.3230    1428.32532       0.7803       1.3220
   1428.31006       0.7260       1.7525    1428.31006       0.7258       1.7512
   1428.29480       0.7360       1.6828    1428.29480       0.7358       1.6816
   1428.27954       0.7238       1.8058    1428.27954       0.7237       1.8045
   1428.26428       0.8575       1.7042    1428.26428       0.8573       1.7029
   1428.24902       0.8288       1.8956    1428.24902       0.8286       1.8942
   1428.23376       1.0455       1.6141    1428.23376       1.0453       1.6129
   1428.21851       0.6628       1.7138    1428.21851       0.6627       1.7126
   1428.20325       0.7894       1.7288    1428.20325       0.7892       1.7275
   1428.18799       0.8716       1.9482    1428.18799       0.8714       1.9467
   1428.17273       1.0870       1.8773    1428.17273       1.0868       1.8759
   1428.15747       0.6459       1.5648    1428.15747       0.6458       1.5636
   1428.14221       0.6794       1.4893    1428.14221       0.6792       1.4882
   1428.12695       0.8835       1.7091    1428.12695       0.8833       1.7078
   1428.11169       0.8902       1.7151    1428.11169       0.8900       1.7139
   1428.09644       0.9187       1.6995    1428.09644       0.9185       1.6983
   1428.08118       0.6401       1.6190    1428.08118       0.6399       1.6178
   1428.06592       0.7472       1.8444    1428.06592       0.7471       1.8431
   1428.05066       1.0470       1.4265    1428.05066       1.0467       1.4255
   1428.03540       0.9126       1.8655    1428.03540       0.9124       1.8642
   1428.02014       1.0312       1.6857    1428.02014       1.0310       1.6845
   1428.00488       1.0521       1.6295    1428.00488       1.0519       1.6283
   1427.98962       0.7831       1.5262    1427.98962       0.7829       1.5251
   1427.97437       0.9276       1.5829    1427.97437       0.9274       1.5818
   1427.95911       0.7177       1.2904    1427.95911       0.7176       1.2895
   1427.94385       0.5263       1.8992    1427.94385       0.5262       1.8979
   1427.92859       0.8110       1.5304    1427.92859       0.8108       1.5293
   1427.91333       0.5339       1.4720    1427.91333       0.5338       1.4710
   1427.89807       0.7653       1.4979    1427.89807       0.7651       1.4968
   1427.88281       0.9428       2.0533    1427.88281       0.9427       2.0518
   1427.86755       0.8098       1.8049    1427.86755       0.8096       1.8036
   1427.85229       0.8141       1.7733    1427.85229       0.8139       1.7720
   1427.83704       1.0545       1.4365    1427.83704       1.0543       1.4354
   1427.82178       0.7198       1.4484    1427.82178       0.7196       1.4473
   1427.80652       0.7227       1.6097    1427.80652       0.7226       1.6085
   1427.79126       0.5718       1.6661    1427.79126       0.5717       1.6649
   1427.77600       0.8171       1.5139    1427.77600       0.8169       1.5128
   1427.76074       0.9308       1.6408    1427.76074       0.9306       1.6396
   1427.74548       0.9627       1.5025    1427.74548       0.9625       1.5014
   1427.73022       1.0666       1.4014    1427.73022       1.0664       1.4004
   1427.71497       0.6713       1.6118    1427.71497       0.6712       1.6106
   1427.69971       0.8391       1.6666    1427.69971       0.8389       1.6654
   1427.68445       0.9419       1.7217    1427.68445       0.9417       1.7204
   1427.66919       1.0878       1.4652    1427.66919       1.0876       1.4641
   1427.65393       1.0652       1.4364    1427.65393       1.0650       1.4354
   1427.63867       1.0915       1.5198    1427.63867       1.0913       1.5187
   1427.62341       0.7910       1.7568    1427.62341       0.7909       1.7555
   1427.60815       0.8028       1.9725    1427.60815       0.8026       1.9711
   1427.59290       0.9431       1.4393    1427.59290       0.9429       1.4383
   1427.57764       0.9050       1.7499    1427.57764       0.9048       1.7487
   1427.56238       0.9768       1.4277    1427.56238       0.9766       1.4266
   1427.54712       0.8561       1.4658    1427.54712       0.8559       1.4647
   1427.53186       0.7543       1.8464    1427.53186       0.7542       1.8450
   1427.51660       0.9787       1.6030    1427.51660       0.9785       1.6018
   1427.50134       0.6225       1.4458    1427.50134       0.6224       1.4448
   1427.48608       0.8814       1.2855    1427.48608       0.8812       1.2846
   1427.47083       0.9428       1.6198    1427.47083       0.9426       1.6186
   1427.45557       0.9769       1.3312    1427.45557       0.9767       1.3302
   1427.44031       1.1157       1.4748    1427.44031       1.1155       1.4737
   1427.42505       0.8031       1.8354    1427.42505       0.8029       1.8341
   1427.40979       0.8215       1.4398    1427.40979       0.8214       1.4387
   1427.39453       0.9774       1.4566    1427.39453       0.9772       1.4555
   1427.37927       1.0783       1.4787    1427.37927       1.0781       1.4776
   1427.36401       1.1097       1.2923    1427.36401       1.1095       1.2913
   1427.34875       0.9423       1.3351    1427.34875       0.9421       1.3342
   1427.33350       0.9342       1.3019    1427.33350       0.9340       1.3009
   1427.31824       1.0535       1.3384    1427.31824       1.0533       1.3374
   1427.30298       1.1426       1.6362    1427.30298       1.1423       1.6350
   1427.28772       1.1072       1.5113    1427.28772       1.1070       1.5102
   1427.27246       1.0314       1.5594    1427.27246       1.0312       1.5583
   1427.25720       0.8879       1.6103    1427.25720       0.8878       1.6091
   1427.24194       0.8991       1.4303    1427.24194       0.8989       1.4293
   1427.22668       1.0153       1.4310    1427.22668       1.0151       1.4300
   1427.21143       0.9068       1.9696    1427.21143       0.9066       1.9682
   1427.19617       1.0780       1.7915    1427.19617       1.0778       1.7902
   1427.18091       0.8827       1.4254    1427.18091       0.8826       1.4244
   1427.16565       1.0056       1.6448    1427.16565       1.0054       1.6436
   1427.15039       1.1605       1.3651    1427.15039       1.1602       1.3641
   1427.13513       0.9293       1.3010    1427.13513       0.9291       1.3000
   1427.11987       0.8876       1.3178    1427.11987       0.8874       1.3168
   1427.10461       1.0241       1.6058    1427.10461       1.0239       1.6047
   1427.08936       0.8419       1.1746    1427.08936       0.8417       1.1737
   1427.07410       1.0921       1.6195    1427.07410       1.0919       1.6183
   1427.05884       1.0695       1.2630    1427.05884       1.0693       1.2621
   1427.04358       1.1009       1.6175    1427.04358       1.1007       1.6163
   1427.02832       1.0386       1.6583    1427.02832       1.0384       1.6571
   1427.01306       1.1950       1.2839    1427.01306       1.1948       1.2830
   1426.99780       1.1390       1.2943    1426.99780       1.1387       1.2934
   1426.98254       1.1897       1.2781    1426.98254       1.1895       1.2772
   1426.96729       0.9414       1.7407    1426.96729       0.9412       1.7394
   1426.95203       1.0724       1.3155    1426.95203       1.0722       1.3145
   1426.93677       0.9268       1.4251    1426.93677       0.9266       1.4241
   1426.92151       1.0395       1.6317    1426.92151       1.0393       1.6305
   1426.90625       1.3872       1.0753    1426.90625       1.3869       1.0745
   1426.89099       1.0449       1.3459    1426.89099       1.0447       1.3449
   1426.87573       1.2035       1.4794    1426.87573       1.2032       1.4783
   1426.86047       0.9817       1.3477    1426.86047       0.9815       1.3467
   1426.84521       1.1027       1.3153    1426.84521       1.1025       1.3143
   1426.82996       1.0462       1.6262    1426.82996       1.0460       1.6250
   1426.81470       1.1410       1.4468    1426.81470       1.1407       1.4457
   1426.79944       1.0385       1.6435    1426.79944       1.0383       1.6423
   1426.78418       1.3550       1.1809    1426.78418       1.3547       1.1801
   1426.76892       1.1735       1.4251    1426.76892       1.1733       1.4240
   1426.75366       1.0875       1.8520    1426.75366       1.0873       1.8506
   1426.73840       1.1664       1.7327    1426.73840       1.1662       1.7314
   1426.72314       1.0308       1.3301    1426.72314       1.0306       1.3291
   1426.70789       1.3864       1.2192    1426.70789       1.3861       1.2183
   1426.69263       1.2330       1.0487    1426.69263       1.2328       1.0479
   1426.67737       1.3158       1.0463    1426.67737       1.3156       1.0456
   1426.66211       1.5963       1.5250    1426.66211       1.5960       1.5239
   1426.64685       1.2388       1.1872    1426.64685       1.2385       1.1863
   1426.63159       1.1738       1.2138    1426.63159       1.1736       1.2129
   1426.61633       1.4098       1.1772    1426.61633       1.4095       1.1763
   1426.60107       1.1617       1.4759    1426.60107       1.1615       1.4748
   1426.58582       1.4844       1.4786    1426.58582       1.4841       1.4775
   1426.57056       1.1630       1.6417    1426.57056       1.1628       1.6405
   1426.55530       1.1688       1.5731    1426.55530       1.1686       1.5720
   1426.54004       1.1605       1.6421    1426.54004       1.1602       1.6409
   1426.52478       1.1074       1.2449    1426.52478       1.1071       1.2440
   1426.50952       1.1625       1.2514    1426.50952       1.1623       1.2505
   1426.49426       1.0758       1.0157    1426.49426       1.0756       1.0150
   1426.47900       1.3761       1.1331    1426.47900       1.3758       1.1322
   1426.46375       1.1857       1.5027    1426.46375       1.1854       1.5016
   1426.44849       1.4816       1.3219    1426.44849       1.4813       1.3210
   1426.43323       1.4215       1.5464    1426.43323       1.4213       1.5453
   1426.41797       1.3779       1.3089    1426.41797       1.3776       1.3080
   1426.40271       1.1292       1.3631    1426.40271       1.1290       1.3621
   1426.38745       1.4168       1.4924    1426.38745       1.4165       1.4913
   1426.37219       1.3421       1.0861    1426.37219       1.3419       1.0853
   1426.35693       1.4380       0.9266    1426.35693       1.4378       0.9260
   1426.34167       1.3047       1.1927    1426.34167       1.3044       1.1918
   1426.32642       1.0929       1.3494    1426.32642       1.0927       1.3484
   1426.31116       1.1478       1.5030    1426.31116       1.1476       1.5019
   1426.29590       1.2100       1.2120    1426.29590       1.2098       1.2111
   1426.28064       1.3079       1.4342    1426.28064       1.3077       1.4332
   1426.26538       1.4260       1.4412    1426.26538       1.4257       1.4402
   1426.25012       1.3263       1.2545    1426.25012       1.3261       1.2536
   1426.23486       0.9629       1.1726    1426.23486       0.9627       1.1717
   1426.21960       1.1554       1.4581    1426.21960       1.1552       1.4570
   1426.20435       1.0344       1.3406    1426.20435       1.0342       1.3396
   1426.18909       1.1546       1.0550    1426.18909       1.1543       1.0542
   1426.17383       1.1833       1.0100    1426.17383       1.1831       1.0093
   1426.15857       1.2108       1.0749    1426.15857       1.2105       1.0742
   1426.14331       1.1646       1.1455    1426.14331       1.1644       1.1447
   1426.12805       1.2722       1.2933    1426.12805       1.2720       1.2924
   1426.11279       1.4073       1.0242    1426.11279       1.4070       1.0234
   1426.09753       1.2734       1.2487    1426.09753       1.2732       1.2478
   1426.08228       1.1066       1.4712    1426.08228       1.1064       1.4701
   1426.06702       1.4551       1.1662    1426.06702       1.4549       1.1654
   1426.05176       1.3512       1.0941    1426.05176       1.3509       1.0933
   1426.03650       0.9439       0.9734    1426.03650       0.9438       0.9727
   1426.02124       1.1478       1.2852    1426.02124       1.1476       1.2843
   1426.00598       1.1447       0.9256    1426.00598       1.1445       0.9249
   1425.99072       1.2931       0.9173    1425.99072       1.2929       0.9167
   1425.97546       1.1176       0.8780    1425.97546       1.1174       0.8773
   1425.96021       1.0286       1.0582    1425.96021       1.0284       1.0574
   1425.94495       1.2780       1.3377    1425.94495       1.2777       1.3367
   1425.92969       1.1563       1.2243    1425.92969       1.1561       1.2234
   1425.91443       1.2972       1.1421    1425.91443       1.2970       1.1412
   1425.89917       1.2232       1.0808    1425.89917       1.2230       1.0800
   1425.88391       1.3106       1.3859    1425.88391       1.3104       1.3849
   1425.86865       1.4021       1.1703    1425.86865       1.4019       1.1695
   1425.85339       1.3561       1.4996    1425.85339       1.3558       1.4985
   1425.83813       1.4330       1.2752    1425.83813       1.4327       1.2743
   1425.82288       1.2250       1.3402    1425.82288       1.2247       1.3392
   1425.80762       1.2464       1.0424    1425.80762       1.2462       1.0417
   1425.79236       1.3458       1.1392    1425.79236       1.3455       1.1383
   1425.77710       1.3050       1.0348    1425.77710       1.3047       1.0341
   1425.76184       1.3055       0.9281    1425.76184       1.3053       0.9274
   1425.74658       1.1729       0.6440    1425.74658       1.1727       0.6435
   1425.73132       1.2928       0.8975    1425.73132       1.2925       0.8969
   1425.71606       1.3652       1.0910    1425.71606       1.3650       1.0902
   1425.70081       1.2802       0.7754    1425.70081       1.2800       0.7749
   1425.68555       1.0899       1.1034    1425.68555       1.0897       1.1026
   1425.67029       1.0962       1.2156    1425.67029       1.0960       1.2148
   1425.65503       1.3956       1.2196    1425.65503       1.3953       1.2187
   1425.63977       1.2277       1.0724    1425.63977       1.2274       1.0716
   1425.62451       1.1345       1.1049    1425.62451       1.1343       1.1041
   1425.60925       1.3151       1.0302    1425.60925       1.3148       1.0294
   1425.59399       1.4589       1.2824    1425.59399       1.4586       1.2815
   1425.57874       1.1880       1.1774    1425.57874       1.1878       1.1766
   1425.56348       1.1550       1.1530    1425.56348       1.1548       1.1521
   1425.54822       1.3348       0.9511    1425.54822       1.3345       0.9504
   1425.53296       1.5169       0.9905    1425.53296       1.5166       0.9898
   1425.51770       1.4632       0.8494    1425.51770       1.4629       0.8488
   1425.50244       1.2428       1.0467    1425.50244       1.2426       1.0459
   1425.48718       1.2199       1.0157    1425.48718       1.2197       1.0149
   1425.47192       1.2124       0.8636    1425.47192       1.2122       0.8630
   1425.45667       1.4905       1.0137    1425.45667       1.4902       1.0129
   1425.44141       1.5837       1.1373    1425.44141       1.5834       1.1365
   1425.42615       1.3396       0.8500    1425.42615       1.3393       0.8494
   1425.41089       1.3673       0.9209    1425.41089       1.3670       0.9202
   1425.39563       1.4603       0.8002    1425.39563       1.4600       0.7997
   1425.38037       1.6397       1.3959    1425.38037       1.6394       1.3949
   1425.36511       1.1711       0.9718    1425.36511       1.1709       0.9710
   1425.34985       1.4002       1.0542    1425.34985       1.3999       1.0534
   1425.33459       1.1894       0.9400    1425.33459       1.1892       0.9393
   1425.31934       1.3448       0.6771    1425.31934       1.3446       0.6766
   1425.30408       0.9985       0.7589    1425.30408       0.9984       0.7584
   1425.28882       1.0779       1.1594    1425.28882       1.0777       1.1586
   1425.27356       1.2039       1.1201    1425.27356       1.2036       1.1193
   1425.25830       1.2015       0.7924    1425.25830       1.2013       0.7918
   1425.24304       1.2269       0.9007    1425.24304       1.2267       0.9000
   1425.22778       1.4751       1.0896    1425.22778       1.4748       1.0888
   1425.21252       1.3341       0.6752    1425.21252       1.3338       0.6747
   1425.19727       1.3581       1.0929    1425.19727       1.3579       1.0921
   1425.18201       1.5224       0.8898    1425.18201       1.5221       0.8891
   1425.16675       1.5592       0.7352    1425.16675       1.5589       0.7346
   1425.15149       1.1121       0.8934    1425.15149       1.1119       0.8927
   1425.13623       1.5627       1.1787    1425.13623       1.5624       1.1778
   1425.12097       1.5312       1.1172    1425.12097       1.5310       1.1163
   1425.10571       1.2614       1.2985    1425.10571       1.2612       1.2976
   1425.09045       1.8774       0.8819    1425.09045       1.8770       0.8813
   1425.07520       1.3724       0.8281    1425.07520       1.3721       0.8274
   1425.05994       1.2761       0.8373    1425.05994       1.2758       0.8367
   1425.04468       1.2599       1.0187    1425.04468       1.2597       1.0179
   1425.02942       1.5993       0.8048    1425.02942       1.5990       0.8042
   1425.01416       1.5152       1.0539    1425.01416       1.5149       1.0531
   1424.99890       1.3926       1.3925    1424.99890       1.3923       1.3914
   1424.98364       1.3542       1.1795    1424.98364       1.3539       1.1786
   1424.96838       1.4288       1.5274    1424.96838       1.4286       1.5262
   1424.95312       1.3346       0.8796    1424.95312       1.3343       0.8790
   1424.93787       1.3519       1.0012    1424.93787       1.3517       1.0005
   1424.92261       1.1082       0.7714    1424.92261       1.1080       0.7708
   1424.90735       1.3485       0.8780    1424.90735       1.3482       0.8774
   1424.89209       1.6179       0.6607    1424.89209       1.6176       0.6602
   1424.87683       1.4695       0.9973    1424.87683       1.4693       0.9966
   1424.86157       1.4950       0.6981    1424.86157       1.4947       0.6976
   1424.84631       1.2334       0.9475    1424.84631       1.2332       0.9468
   1424.83105       1.4327       1.0967    1424.83105       1.4325       1.0959
   1424.81580       1.6032       0.9821    1424.81580       1.6028       0.9814
   1424.80054       1.4895       0.9967    1424.80054       1.4892       0.9960
   1424.78528       1.2991       1.2161    1424.78528       1.2989       1.2152
   1424.77002       1.4398       0.8271    1424.77002       1.4396       0.8265
   1424.75476       1.0333       1.0371    1424.75476       1.0331       1.0363
   1424.73950       1.5332       0.8717    1424.73950       1.5329       0.8710
   1424.72424       1.3118       0.9038    1424.72424       1.3115       0.9032
   1424.70898       1.2382       0.9115    1424.70898       1.2380       0.9108
   1424.69373       1.4533       0.7021    1424.69373       1.4530       0.7016
   1424.67847       1.6504       0.8905    1424.67847       1.6500       0.8898
   1424.66321       1.3667       0.9222    1424.66321       1.3664       0.9215
   1424.64795       1.6075       0.6672    1424.64795       1.6072       0.6667
   1424.63269       1.2156       0.8258    1424.63269       1.2154       0.8252
   1424.61743       1.3611       0.5098    1424.61743       1.3608       0.5094
   1424.60217       1.4903       0.8282    1424.60217       1.4900       0.8275
   1424.58691       1.3512       0.9342    1424.58691       1.3509       0.9335
   1424.57166       1.2628       0.9110    1424.57166       1.2626       0.9103
   1424.55640       1.1666       1.0397    1424.55640       1.1664       1.0389
   1424.54114       1.2711       1.0121    1424.54114       1.2708       1.0114
   1424.52588       1.3755       0.9032    1424.52588       1.3752       0.9025
   1424.51062       1.2846       0.7236    1424.51062       1.2844       0.7230
   1424.49536       1.2111       1.0804    1424.49536       1.2109       1.0796
   1424.48010       1.1822       0.9460    1424.48010       1.1819       0.9454
   1424.46484       1.4216       0.7338    1424.46484       1.4214       0.7333
   1424.44958       1.2894       0.8949    1424.44958       1.2891       0.8942
   1424.43433       1.4147       0.9065    1424.43433       1.4144       0.9058
   1424.41907       1.4560       1.0653    1424.41907       1.4557       1.0645
   1424.40381       1.3403       1.1527    1424.40381       1.3400       1.1518
   1424.38855       1.1584       0.8578    1424.38855       1.1582       0.8572
   1424.37329       1.3601       1.1612    1424.37329       1.3599       1.1604
   1424.35803       1.3438       0.9354    1424.35803       1.3435       0.9347
   1424.34277       1.3389       1.1171    1424.34277       1.3386       1.1163
   1424.32751       1.2227       0.8648    1424.32751       1.2225       0.8642
   1424.31226       1.2473       1.3658    1424.31226       1.2471       1.3648
   1424.29700       1.1698       0.7979    1424.29700       1.1695       0.7973
   1424.28174       1.4539       1.0566    1424.28174       1.4536       1.0558
   1424.26648       1.3857       0.9230    1424.26648       1.3854       0.9223
   1424.25122       1.4396       0.6979    1424.25122       1.4393       0.6974
   1424.23596       1.4122       0.6263    1424.23596       1.4119       0.6259
   1424.22070       1.6879       0.9072    1424.22070       1.6876       0.9065
   1424.20544       1.3526       1.0170    1424.20544       1.3523       1.0162
   1424.19019       1.3997       1.0116    1424.19019       1.3995       1.0109
   1424.17493       1.4663       0.8734    1424.17493       1.4660       0.8727
   1424.15967       1.2618       1.1611    1424.15967       1.2616       1.1603
   1424.14441       1.1937       0.8991    1424.14441       1.1935       0.8984
   1424.12915       1.3009       1.0763    1424.12915       1.3006       1.0756
   1424.11389       1.1422       0.9310    1424.11389       1.1420       0.9303
   1424.09863       1.4286       1.0472    1424.09863       1.4283       1.0464
   1424.08337       1.1975       0.9663    1424.08337       1.1973       0.9656
   1424.06812       1.1736       1.1052    1424.06812       1.1734       1.1044
   1424.05286       1.2793       0.8002    1424.05286       1.2790       0.7997
   1424.03760       1.2532       0.8800    1424.03760       1.2530       0.8793
   1424.02234       1.4685       0.7759    1424.02234       1.4682       0.7753
   1424.00708       1.3512       1.1306    1424.00708       1.3509       1.1297
   1423.99182       1.3000       0.9189    1423.99182       1.2998       0.9182
   1423.97656       1.4500       0.9847    1423.97656       1.4498       0.9840
   1423.96130       1.2718       0.9845    1423.96130       1.2716       0.9838
   1423.94604       1.1791       0.8692    1423.94604       1.1789       0.8685
   1423.93079       1.3993       0.8775    1423.93079       1.3990       0.8769
   1423.91553       1.2626       0.8930    1423.91553       1.2623       0.8923
   1423.90027       1.2861       0.7003    1423.90027       1.2858       0.6998
   1423.88501       1.2420       1.0343    1423.88501       1.2418       1.0336
   1423.86975       1.1060       0.7612    1423.86975       1.1058       0.7606
   1423.85449       1.1796       0.4717    1423.85449       1.1793       0.4713
   1423.83923       1.2971       0.7466    1423.83923       1.2969       0.7461
   1423.82397       1.1262       1.2293    1423.82397       1.1260       1.2284
   1423.80872       1.0885       0.7356    1423.80872       1.0883       0.7351
   1423.79346       1.1709       0.7409    1423.79346       1.1707       0.7404
   1423.77820       1.2820       0.7715    1423.77820       1.2817       0.7710
   1423.76294       1.3774       0.6108    1423.76294       1.3771       0.6104
   1423.74768       1.2286       0.8709    1423.74768       1.2284       0.8702
   1423.73242       1.3264       0.5739    1423.73242       1.3261       0.5735
   1423.71716       1.2822       0.8246    1423.71716       1.2819       0.8240
   1423.70190       1.1844       0.8496    1423.70190       1.1841       0.8489
   1423.68665       1.1363       1.2482    1423.68665       1.1361       1.2472
   1423.67139       1.1060       0.9489    1423.67139       1.1057       0.9482
   1423.65613       1.1164       1.0633    1423.65613       1.1162       1.0625
   1423.64087       1.3818       0.7677    1423.64087       1.3815       0.7672
   1423.62561       1.2860       1.0628    1423.62561       1.2858       1.0621
   1423.61035       1.0653       0.9698    1423.61035       1.0651       0.9691
   1423.59509       1.1203       0.7307    1423.59509       1.1200       0.7302
   1423.57983       0.9657       0.8083    1423.57983       0.9656       0.8077
   1423.56458       0.9882       0.9006    1423.56458       0.9880       0.8999
   1423.54932       1.3209       0.9310    1423.54932       1.3206       0.9303
   1423.53406       1.3052       0.9847    1423.53406       1.3050       0.9840
   1423.51880       1.3903       1.1843    1423.51880       1.3901       1.1834
   1423.50354       1.3063       0.8004    1423.50354       1.3060       0.7998
   1423.48828       1.1044       0.7503    1423.48828       1.1042       0.7497
   1423.47302       1.0583       1.0224    1423.47302       1.0581       1.0217
   1423.45776       1.1007       0.7807    1423.45776       1.1005       0.7801
   1423.44250       1.0495       0.6294    1423.44250       1.0493       0.6289
   1423.42725       1.1293       0.7895    1423.42725       1.1291       0.7889
   1423.41199       1.0864       0.6096    1423.41199       1.0862       0.6091
   1423.39673       1.2217       0.5113    1423.39673       1.2214       0.5110
   1423.38147       1.2373       0.8358    1423.38147       1.2371       0.8352
   1423.36621       1.2920       0.9113    1423.36621       1.2918       0.9107
   1423.35095       1.1504       0.8325    1423.35095       1.1502       0.8319
   1423.33569       1.3354       0.6962    1423.33569       1.3351       0.6957
   1423.32043       1.0966       1.1173    1423.32043       1.0964       1.1165
   1423.30518       1.1885       0.9162    1423.30518       1.1883       0.9156
   1423.28992       1.2227       0.6384    1423.28992       1.2225       0.6380
   1423.27466       0.8928       0.7971    1423.27466       0.8926       0.7965
   1423.25940       1.0230       0.6548    1423.25940       1.0228       0.6543
   1423.24414       0.9971       0.7973    1423.24414       0.9970       0.7967
   1423.22888       0.9821       0.9264    1423.22888       0.9819       0.9257
   1423.21362       1.1662       1.0273    1423.21362       1.1660       1.0265
   1423.19836       1.0797       0.7715    1423.19836       1.0795       0.7710
   1423.18311       0.8931       0.9539    1423.18311       0.8929       0.9532
   1423.16785       0.9417       0.8722    1423.16785       0.9416       0.8716
   1423.15259       0.9136       1.0519    1423.15259       0.9134       1.0511
   1423.13733       1.2560       1.0808    1423.13733       1.2557       1.0800
   1423.12207       1.3989       1.2571    1423.12207       1.3986       1.2561
   1423.10681       1.3056       1.3694    1423.10681       1.3054       1.3684
   1423.09155       1.4032       1.2225    1423.09155       1.4029       1.2216
   1423.07629       1.4073       1.3244    1423.07629       1.4071       1.3235
   1423.06104       1.4425       1.3236    1423.06104       1.4422       1.3226
   1423.04578       1.8096       1.4903    1423.04578       1.8092       1.4892
   1423.03052       2.0931       1.6909    1423.03052       2.0927       1.6896
   1423.01526       2.4153       3.8035    1423.01526       2.4149       3.8007
   1423.00000       3.3103       4.4000    1423.00000       3.3097       4.3968
   1422.98474       4.2053       4.9450    1422.98474       4.2045       4.9414
   1422.96948       4.3884       3.8151    1422.96948       4.3876       3.8123
   1422.95422       4.8200       4.6030    1422.95422       4.8190       4.5996
   1422.93896       4.9538       4.5767    1422.93896       4.9528       4.5734
   1422.92371       4.7561       4.6588    1422.92371       4.7552       4.6553
   1422.90845       4.2251       3.9129    1422.90845       4.2243       3.9101
   1422.89319       3.9008       3.7248    1422.89319       3.9001       3.7221
   1422.87793       3.4605       3.1994    1422.87793       3.4598       3.1970
   1422.86267       3.1500       3.3580    1422.86267       3.1494       3.3555
   1422.84741       2.7892       2.5000    1422.84741       2.7887       2.4982
   1422.83215       2.8115       2.5940    1422.83215       2.8109       2.5921
   1422.81689       2.4511       2.2350    1422.81689       2.4506       2.2334
   1422.80164       2.2082       2.0377    1422.80164       2.2078       2.0362
   1422.78638       1.9711       2.0063    1422.78638       1.9707       2.0049
   1422.77112       1.7103       2.0027    1422.77112       1.7100       2.0012
   1422.75586       1.8819       1.8864    1422.75586       1.8816       1.8850
   1422.74060       1.7644       1.6935    1422.74060       1.7641       1.6922
   1422.72534       1.4082       1.7989    1422.72534       1.4079       1.7975
   1422.71008       1.3856       1.1795    1422.71008       1.3853       1.1786
   1422.69482       1.3839       1.3478    1422.69482       1.3836       1.3468
   1422.67957       1.1223       1.0332    1422.67957       1.1220       1.0324
   1422.66431       1.2988       1.1769    1422.66431       1.2985       1.1760
   1422.64905       1.0893       1.1403    1422.64905       1.0891       1.1394
   1422.63379       1.0610       1.3250    1422.63379       1.0608       1.3240
   1422.61853       0.9541       0.9511    1422.61853       0.9539       0.9504
   1422.60327       1.3291       1.0344    1422.60327       1.3289       1.0336
   1422.58801       0.7436       0.7699    1422.58801       0.7435       0.7694
   1422.57275       1.1678       0.9521    1422.57275       1.1675       0.9514
   1422.55750       0.9082       0.7462    1422.55750       0.9080       0.7456
   1422.54224       0.9589       0.6847    1422.54224       0.9587       0.6842
   1422.52698       0.9690       1.2480    1422.52698       0.9688       1.2471
   1422.51172       0.9670       0.8292    1422.51172       0.9668       0.8286
   1422.49646       0.9242       0.6200    1422.49646       0.9240       0.6196
   1422.48120       0.8277       0.6828    1422.48120       0.8275       0.6823
   1422.46594       0.8378       0.7327    1422.46594       0.8376       0.7321
   1422.45068       1.0116       1.2280    1422.45068       1.0114       1.2270
   1422.43542       0.7177       0.8314    1422.43542       0.7175       0.8308
   1422.42017       1.0720       0.7447    1422.42017       1.0718       0.7442
   1422.40491       0.8357       1.0492    1422.40491       0.8355       1.0484
   1422.38965       0.6222       1.0184    1422.38965       0.6221       1.0177
   1422.37439       0.8529       0.6253    1422.37439       0.8528       0.6249
   1422.35913       0.8685       0.9482    1422.35913       0.8683       0.9475
   1422.34387       0.6006       0.9286    1422.34387       0.6005       0.9280
   1422.32861       0.7953       0.9021    1422.32861       0.7951       0.9014
   1422.31335       1.1359       0.9149    1422.31335       1.1357       0.9143
   1422.29810       0.8314       0.6729    1422.29810       0.8313       0.6724
   1422.28284       0.8793       0.8792    1422.28284       0.8791       0.8786
   1422.26758       0.8461       0.7857    1422.26758       0.8460       0.7851
   1422.25232       0.8666       0.7325    1422.25232       0.8665       0.7320
   1422.23706       0.7925       0.7571    1422.23706       0.7923       0.7565
   1422.22180       0.6818       0.9733    1422.22180       0.6816       0.9726
   1422.20654       0.8092       0.7607    1422.20654       0.8090       0.7601
   1422.19128       0.7756       0.8375    1422.19128       0.7755       0.8368
   1422.17603       0.9286       0.9200    1422.17603       0.9284       0.9193
   1422.16077       0.6577       0.6952    1422.16077       0.6576       0.6947
   1422.14551       1.0601       1.1573    1422.14551       1.0599       1.1565
   1422.13025       0.6991       0.8792    1422.13025       0.6990       0.8786
   1422.11499       0.8642       0.8703    1422.11499       0.8641       0.8697
   1422.09973       0.7518       0.7609    1422.09973       0.7516       0.7603
   1422.08447       0.6930       0.8563    1422.08447       0.6929       0.8557
   1422.06921       0.5086       0.8963    1422.06921       0.5085       0.8956
   1422.05396       0.9489       1.0784    1422.05396       0.9487       1.0776
   1422.03870       0.5979       1.2961    1422.03870       0.5978       1.2952
   1422.02344       1.1263       1.0645    1422.02344       1.1260       1.0637
   1422.00818       0.6531       0.7486    1422.00818       0.6530       0.7481
   1421.99292       0.8082       0.6921    1421.99292       0.8081       0.6916
   1421.97766       0.7315       0.5853    1421.97766       0.7314       0.5848
   1421.96240       0.4535       1.1649    1421.96240       0.4534       1.1641
   1421.94714       0.6593       0.9981    1421.94714       0.6591       0.9973
   1421.93188       0.4999       1.0095    1421.93188       0.4998       1.0088
   1421.91663       0.7238       0.9293    1421.91663       0.7236       0.9286
   1421.90137       0.5801       0.8012    1421.90137       0.5800       0.8006
   1421.88611       0.8483       0.7538    1421.88611       0.8482       0.7533
   1421.87085       0.5609       0.9877    1421.87085       0.5608       0.9869
   1421.85559       0.7357       0.9005    1421.85559       0.7356       0.8998
   1421.84033       0.6375       0.8256    1421.84033       0.6374       0.8250
   1421.82507       0.7283       1.0813    1421.82507       0.7281       1.0806
   1421.80981       0.6585       0.9205    1421.80981       0.6584       0.9199
   1421.79456       0.6058       0.6893    1421.79456       0.6057       0.6887
   1421.77930       0.7545       1.0794    1421.77930       0.7543       1.0786
   1421.76404       0.8384       0.8988    1421.76404       0.8382       0.8982
   1421.74878       0.7394       1.1900    1421.74878       0.7392       1.1891
   1421.73352       0.8881       1.3745    1421.73352       0.8879       1.3735
   1421.71826       0.7564       0.9670    1421.71826       0.7563       0.9663
   1421.70300       0.7582       0.8742    1421.70300       0.7580       0.8735
   1421.68774       0.4910       1.0288    1421.68774       0.4909       1.0281
   1421.67249       0.7072       0.9741    1421.67249       0.7070       0.9734
   1421.65723       0.6008       0.7519    1421.65723       0.6007       0.7513
   1421.64197       0.7385       0.6618    1421.64197       0.7384       0.6613
   1421.62671       0.7749       0.8588    1421.62671       0.7748       0.8582
   1421.61145       0.4749       0.9429    1421.61145       0.4748       0.9422
   1421.59619       0.6006       1.1068    1421.59619       0.6005       1.1060
   1421.58093       0.6602       1.0169    1421.58093       0.6601       1.0161
   1421.56567       0.7483       0.8518    1421.56567       0.7481       0.8512
   1421.55042       0.4056       1.0960    1421.55042       0.4055       1.0952
   1421.53516       0.5338       1.1827    1421.53516       0.5337       1.1818
   1421.51990       0.6966       1.0063    1421.51990       0.6964       1.0056
   1421.50464       0.5991       1.2739    1421.50464       0.5990       1.2730
   1421.48938       0.9778       1.1598    1421.48938       0.9777       1.1589
   1421.47412       0.6566       1.1794    1421.47412       0.6564       1.1785
   1421.45886       0.7228       0.7144    1421.45886       0.7227       0.7139
   1421.44360       0.8171       0.9296    1421.44360       0.8169       0.9289
   1421.42834       0.6921       0.9958    1421.42834       0.6920       0.9950
   1421.41309       0.6437       0.9628    1421.41309       0.6436       0.9621
   1421.39783       0.6216       1.2067    1421.39783       0.6215       1.2058
   1421.38257       0.8970       1.2625    1421.38257       0.8968       1.2616
   1421.36731       0.6271       1.4669    1421.36731       0.6270       1.4658
   1421.35205       0.5661       1.3506    1421.35205       0.5659       1.3496
   1421.33679       0.4539       0.9710    1421.33679       0.4538       0.9703
   1421.32153       0.4769       0.8750    1421.32153       0.4768       0.8743
   1421.30627       0.6331       0.7053    1421.30627       0.6329       0.7048
   1421.29102       0.7487       0.9454    1421.29102       0.7485       0.9447
   1421.27576       0.5592       0.7775    1421.27576       0.5591       0.7769
   1421.26050       0.3878       0.9809    1421.26050       0.3877       0.9802
   1421.24524       0.3694       0.9992    1421.24524       0.3693       0.9984
   1421.22998       0.6209       1.2877    1421.22998       0.6208       1.2867
   1421.21472       0.7278       1.0172    1421.21472       0.7277       1.0165
   1421.19946       0.5740       0.9815    1421.19946       0.5739       0.9807
   1421.18420       0.5432       0.9072    1421.18420       0.5431       0.9065
   1421.16895       0.3325       1.1863    1421.16895       0.3324       1.1854
   1421.15369       0.4583       1.1185    1421.15369       0.4582       1.1177
   1421.13843       0.7124       1.1651    1421.13843       0.7122       1.1642
   1421.12317       0.7581       1.4656    1421.12317       0.7580       1.4645
   1421.10791       0.4364       1.1718    1421.10791       0.4363       1.1709
   1421.09265       0.5715       0.9482    1421.09265       0.5713       0.9475
   1421.07739       0.7458       1.1680    1421.07739       0.7456       1.1671
   1421.06213       0.8390       1.1011    1421.06213       0.8389       1.1003
   1421.04688       0.7946       1.1828    1421.04688       0.7945       1.1819
   1421.03162       0.5528       1.0990    1421.03162       0.5527       1.0981
   1421.01636       0.6371       1.5151    1421.01636       0.6370       1.5140
   1421.00110       0.6375       0.8135    1421.00110       0.6374       0.8129
   1420.98584       0.7225       1.1776    1420.98584       0.7223       1.1767
   1420.97058       0.7855       1.1729    1420.97058       0.7853       1.1721
   1420.95532       0.4723       1.0063    1420.95532       0.4722       1.0056
   1420.94006       0.3442       1.2119    1420.94006       0.3441       1.2111
   1420.92480       0.5193       0.8152    1420.92480       0.5192       0.8146
   1420.90955       0.4351       1.1256    1420.90955       0.4350       1.1248
   1420.89429       0.5955       0.8505    1420.89429       0.5953       0.8499
   1420.87903       0.6678       1.0152    1420.87903       0.6677       1.0145
   1420.86377       0.6305       1.0448    1420.86377       0.6303       1.0441
   1420.84851       0.6206       1.2897    1420.84851       0.6205       1.2887
   1420.83325       0.6889       1.1785    1420.83325       0.6887       1.1776
   1420.81799       0.6122       0.9436    1420.81799       0.6120       0.9429
   1420.80273       0.8879       1.1090    1420.80273       0.8877       1.1082
   1420.78748       0.9701       1.6174    1420.78748       0.9699       1.6162
   1420.77222       1.0999       1.9532    1420.77222       1.0997       1.9518
   1420.75696       1.2294       1.9827    1420.75696       1.2291       1.9812
   1420.74170       1.4312       1.4393    1420.74170       1.4310       1.4383
   1420.72644       0.9808       1.9929    1420.72644       0.9806       1.9914
   1420.71118       1.0839       1.5513    1420.71118       1.0837       1.5502
   1420.69592       1.3019       2.0026    1420.69592       1.3016       2.0012
   1420.68066       0.8653       1.4056    1420.68066       0.8651       1.4045
   1420.66541       0.3149       0.9514    1420.66541       0.3148       0.9507
   1420.65015      -0.0622       0.6354    1420.65015      -0.0622       0.6350
   1420.63489      -0.0702       0.6642    1420.63489      -0.0702       0.6637
   1420.61963      -0.2685       0.3157    1420.61963      -0.2684       0.3154
   1420.60437      -0.1407       0.8218    1420.60437      -0.1407       0.8212
   1420.58911       0.4722       1.0005    1420.58911       0.4721       0.9997
   1420.57385      -0.1488       0.7500    1420.57385      -0.1488       0.7495
   1420.55859      -0.7334      -0.6055    1420.55859      -0.7333      -0.6050
   1420.54333      -1.1118      -0.5145    1420.54333      -1.1116      -0.5141
   1420.52808      -3.2427      -2.6498    1420.52808      -3.2420      -2.6478
   1420.51282      -0.3114       0.8916    1420.51282      -0.3113       0.8909
   1420.49756       4.2610       5.5317    1420.49756       4.2602       5.5277
   1420.48230       1.4795       2.9826    1420.48230       1.4792       2.9804
   1420.46704      -0.2954       0.7211    1420.46704      -0.2954       0.7205
   1420.45178       0.3135       0.9551    1420.45178       0.3134       0.9544
   1420.43652       0.6644       0.8248    1420.43652       0.6643       0.8242
   1420.42126       0.3388       1.3046    1420.42126       0.3388       1.3036
   1420.40601       0.7106       1.4384    1420.40601       0.7104       1.4373
   1420.39075       0.6573       0.9105    1420.39075       0.6571       0.9098
   1420.37549       0.4414       0.9489    1420.37549       0.4413       0.9482
   1420.36023       0.3759       1.1703    1420.36023       0.3759       1.1694
   1420.34497       0.4423       1.0924    1420.34497       0.4422       1.0916
   1420.32971       0.7183       1.0944    1420.32971       0.7182       1.0936
   1420.31445       0.6068       1.2404    1420.31445       0.6067       1.2395
   1420.29919       0.7059       1.0778    1420.29919       0.7058       1.0770
   1420.28394       0.6608       1.5195    1420.28394       0.6607       1.5184
   1420.26868       0.7005       1.2950    1420.26868       0.7004       1.2940
   1420.25342       0.2486       1.5557    1420.25342       0.2486       1.5545
   1420.23816       0.4813       1.2522    1420.23816       0.4812       1.2512
   1420.22290       0.6148       1.5393    1420.22290       0.6147       1.5382
   1420.20764       0.4174       1.4583    1420.20764       0.4173       1.4572
   1420.19238       0.4192       1.3468    1420.19238       0.4192       1.3458
   1420.17712       0.3887       1.4950    1420.17712       0.3886       1.4939
   1420.16187       0.6519       1.2588    1420.16187       0.6518       1.2579
   1420.14661       0.5726       1.2058    1420.14661       0.5725       1.2049
   1420.13135       0.5798       1.1660    1420.13135       0.5797       1.1652
   1420.11609       0.5744       1.7755    1420.11609       0.5743       1.7742
   1420.10083       0.6525       1.0022    1420.10083       0.6524       1.0014
   1420.08557       0.5849       1.2629    1420.08557       0.5847       1.2620
   1420.07031       0.4279       1.3780    1420.07031       0.4279       1.3770
   1420.05505       0.4537       1.2388    1420.05505       0.4536       1.2379
   1420.03979       0.5743       1.4288    1420.03979       0.5742       1.4278
   1420.02454       0.3979       1.2491    1420.02454       0.3978       1.2482
   1420.00928       0.3770       1.3895    1420.00928       0.3769       1.3884
   1419.99402       0.5654       1.2261    1419.99402       0.5653       1.2252
   1419.97876       0.4324       1.6513    1419.97876       0.4323       1.6501
   1419.96350       0.5491       1.2645    1419.96350       0.5490       1.2635
   1419.94824       0.5520       1.4645    1419.94824       0.5519       1.4634
   1419.93298       0.5654       1.2336    1419.93298       0.5653       1.2327
   1419.91772       0.6493       0.9025    1419.91772       0.6492       0.9018
   1419.90247       0.4418       1.1050    1419.90247       0.4417       1.1042
   1419.88721       0.5698       1.1589    1419.88721       0.5696       1.1580
   1419.87195       0.8885       1.3942    1419.87195       0.8883       1.3932
   1419.85669       0.4402       1.4675    1419.85669       0.4401       1.4665
   1419.84143       0.4321       1.1805    1419.84143       0.4320       1.1796
   1419.82617       0.5079       1.3187    1419.82617       0.5078       1.3177
   1419.81091       0.4341       1.3599    1419.81091       0.4340       1.3589
   1419.79565       0.4212       1.1898    1419.79565       0.4211       1.1889
   1419.78040       0.4924       1.2762    1419.78040       0.4923       1.2753
   1419.76514       0.3444       1.7739    1419.76514       0.3443       1.7726
   1419.74988       0.3816       1.4703    1419.74988       0.3815       1.4693
   1419.73462       0.1717       1.4253    1419.73462       0.1717       1.4242
   1419.71936       0.6075       1.5276    1419.71936       0.6074       1.5265
   1419.70410       0.4929       1.1007    1419.70410       0.4928       1.0999
   1419.68884       0.5473       1.3865    1419.68884       0.5472       1.3855
   1419.67358       0.6083       1.3473    1419.67358       0.6081       1.3464
   1419.65833       0.3246       1.4906    1419.65833       0.3246       1.4895
   1419.64307       0.5774       1.3548    1419.64307       0.5773       1.3539
   1419.62781       0.4629       1.5709    1419.62781       0.4628       1.5697
   1419.61255       0.4958       1.2068    1419.61255       0.4957       1.2059
   1419.59729       0.5777       1.0915    1419.59729       0.5776       1.0907
   1419.58203       0.4660       1.5275    1419.58203       0.4659       1.5264
   1419.56677       0.3955       1.4979    1419.56677       0.3954       1.4968
   1419.55151       0.3932       1.1373    1419.55151       0.3931       1.1365
   1419.53625       0.4317       1.6774    1419.53625       0.4316       1.6761
   1419.52100       0.3731       1.4754    1419.52100       0.3730       1.4743
   1419.50574       0.4895       1.1820    1419.50574       0.4894       1.1811
   1419.49048       0.5602       1.5804    1419.49048       0.5601       1.5793
   1419.47522       0.3483       1.4823    1419.47522       0.3483       1.4812
   1419.45996       0.3436       1.3164    1419.45996       0.3435       1.3154
   1419.44470       0.4728       1.3207    1419.44470       0.4727       1.3198
   1419.42944       0.4769       1.2947    1419.42944       0.4768       1.2938
   1419.41418       0.4236       1.5671    1419.41418       0.4235       1.5660
   1419.39893       0.3680       1.3777    1419.39893       0.3679       1.3767
   1419.38367       0.4379       1.1351    1419.38367       0.4378       1.1343
   1419.36841       0.4608       1.4459    1419.36841       0.4607       1.4449
   1419.35315       0.3557       1.3691    1419.35315       0.3557       1.3681
   1419.33789       0.2786       1.6181    1419.33789       0.2785       1.6169
   1419.32263       0.1953       1.5148    1419.32263       0.1953       1.5137
   1419.30737       0.4437       1.9927    1419.30737       0.4436       1.9913
   1419.29211       0.3672       1.8555    1419.29211       0.3672       1.8542
   1419.27686       0.5234       1.6453    1419.27686       0.5233       1.6440
   1419.26160       0.3729       1.7563    1419.26160       0.3729       1.7550
   1419.24634       0.1696       1.4277    1419.24634       0.1696       1.4267
   1419.23108       0.5667       1.3932    1419.23108       0.5666       1.3922
   1419.21582       0.5074       1.0419    1419.21582       0.5073       1.0412
   1419.20056       0.4134       1.6143    1419.20056       0.4133       1.6131
   1419.18530       0.4498       1.4827    1419.18530       0.4497       1.4816
   1419.17004       0.3189       1.3368    1419.17004       0.3188       1.3358
   1419.15479       0.2786       1.3884    1419.15479       0.2786       1.3874
   1419.13953       0.5615       1.7176    1419.13953       0.5614       1.7164
   1419.12427       0.5812       1.0037    1419.12427       0.5811       1.0029
   1419.10901       0.4594       1.5931    1419.10901       0.4593       1.5919
   1419.09375       0.5729       1.4805    1419.09375       0.5728       1.4795
   1419.07849       0.4032       1.5062    1419.07849       0.4032       1.5051
   1419.06323       0.4069       1.5363    1419.06323       0.4068       1.5352
   1419.04797       0.3189       1.3269    1419.04797       0.3188       1.3259
   1419.03271       0.3103       1.5719    1419.03271       0.3103       1.5708
   1419.01746       0.3836       1.5666    1419.01746       0.3836       1.5654
   1419.00220       0.2919       1.4005    1419.00220       0.2918       1.3995
   1418.98694       0.0668       1.6841    1418.98694       0.0668       1.6829
   1418.97168       0.5333       1.9350    1418.97168       0.5332       1.9336
   1418.95642       0.4299       1.1349    1418.95642       0.4299       1.1341
   1418.94116       0.4118       1.5184    1418.94116       0.4117       1.5173
   1418.92590       0.3486       1.2287    1418.92590       0.3485       1.2278
   1418.91064       0.3361       1.3396    1418.91064       0.3361       1.3386
   1418.89539       0.6217       1.4623    1418.89539       0.6216       1.4612
   1418.88013       0.3996       1.3905    1418.88013       0.3995       1.3894
   1418.86487       0.1908       1.2164    1418.86487       0.1908       1.2155
   1418.84961       0.4115       1.4780    1418.84961       0.4114       1.4769
   1418.83435       0.2838       1.4096    1418.83435       0.2837       1.4085
   1418.81909       0.3824       1.5014    1418.81909       0.3823       1.5003
   1418.80383       0.3872       1.6981    1418.80383       0.3871       1.6968
   1418.78857       0.3523       1.9433    1418.78857       0.3522       1.9419
   1418.77332       0.4035       1.4689    1418.77332       0.4034       1.4678
   1418.75806       0.4163       1.5299    1418.75806       0.4162       1.5288
   1418.74280       0.3947       1.1878    1418.74280       0.3947       1.1869
   1418.72754       0.4163       1.4698    1418.72754       0.4162       1.4687
   1418.71228       0.4986       1.2807    1418.71228       0.4985       1.2798
   1418.69702       0.5443       1.4521    1418.69702       0.5442       1.4510
   1418.68176       0.3949       1.5671    1418.68176       0.3948       1.5659
   1418.66650       0.4465       1.6739    1418.66650       0.4464       1.6727
   1418.65125       0.3483       1.6309    1418.65125       0.3482       1.6297
   1418.63599       0.5473       1.5697    1418.63599       0.5472       1.5686
   1418.62073       0.5662       1.5976    1418.62073       0.5661       1.5964
   1418.60547       0.3197       1.9050    1418.60547       0.3196       1.9036
   1418.59021       0.6140       1.5109    1418.59021       0.6139       1.5098
   1418.57495       0.3846       1.6193    1418.57495       0.3845       1.6181
   1418.55969       0.2532       1.7451    1418.55969       0.2531       1.7438
   1418.54443       0.4050       1.7911    1418.54443       0.4049       1.7898
   1418.52917       0.3259       1.6111    1418.52917       0.3259       1.6099
   1418.51392       0.1810       1.3957    1418.51392       0.1810       1.3946
   1418.49866       0.2220       1.1800    1418.49866       0.2219       1.1792
   1418.48340       0.2767       1.2637    1418.48340       0.2766       1.2628
   1418.46814       0.3471       1.6532    1418.46814       0.3470       1.6520
   1418.45288       0.2799       1.1018    1418.45288       0.2799       1.1010
   1418.43762       0.3545       1.3339    1418.43762       0.3545       1.3329
   1418.42236       0.2825       1.4524    1418.42236       0.2824       1.4513
   1418.40710       0.3376       1.5799    1418.40710       0.3375       1.5788
   1418.39185       0.5105       1.2501    1418.39185       0.5104       1.2492
   1418.37659       0.5358       1.5849    1418.37659       0.5357       1.5837
   1418.36133       0.4156       1.8220    1418.36133       0.4155       1.8206
   1418.34607       0.4520       1.5564    1418.34607       0.4519       1.5552
   1418.33081       0.6243       1.7726    1418.33081       0.6242       1.7713
   1418.31555       0.5156       1.5936    1418.31555       0.5155       1.5925
   1418.30029       0.5843       1.6033    1418.30029       0.5842       1.6021
   1418.28503       0.5380       1.5093    1418.28503       0.5379       1.5082
   1418.26978       0.5013       1.6129    1418.26978       0.5012       1.6117
   1418.25452       0.2994       1.6896    1418.25452       0.2994       1.6884
   1418.23926       0.4104       1.6451    1418.23926       0.4103       1.6439
   1418.22400       0.2462       1.5135    1418.22400       0.2461       1.5124
   1418.20874       0.5121       1.3626    1418.20874       0.5120       1.3616
   1418.19348       0.1201       1.3374    1418.19348       0.1201       1.3364
   1418.17822       0.2476       1.5118    1418.17822       0.2475       1.5107
   1418.16296       0.1702       1.6109    1418.16296       0.1701       1.6097
   1418.14771       0.2854       1.3888    1418.14771       0.2853       1.3878
   1418.13245       0.0315       1.3894    1418.13245       0.0315       1.3884
   1418.11719       0.5189       1.2650    1418.11719       0.5188       1.2641
   1418.10193       0.5833       1.3689    1418.10193       0.5832       1.3679
   1418.08667       0.4183       1.2915    1418.08667       0.4183       1.2906
   1418.07141       0.6502       1.5754    1418.07141       0.6501       1.5742
   1418.05615       0.3747       1.7853    1418.05615       0.3746       1.7840
   1418.04089       0.4443       1.8119    1418.04089       0.4442       1.8105
   1418.02563       0.6935       1.4784    1418.02563       0.6934       1.4773
   1418.01038       0.5230       1.5541    1418.01038       0.5229       1.5529
   1417.99512       0.5045       1.3982    1417.99512       0.5044       1.3971
   1417.97986       0.4765       1.6174    1417.97986       0.4764       1.6162
   1417.96460       0.5837       1.5063    1417.96460       0.5835       1.5052
   1417.94934       0.5509       1.6225    1417.94934       0.5508       1.6214
   1417.93408       0.4740       1.6739    1417.93408       0.4739       1.6727
   1417.91882       0.3334       1.2749    1417.91882       0.3334       1.2739
   1417.90356       0.4794       1.3425    1417.90356       0.4793       1.3416
   1417.88831       0.4872       1.2582    1417.88831       0.4871       1.2573
   1417.87305       0.3388       1.3884    1417.87305       0.3387       1.3874
   1417.85779       0.1882       1.1570    1417.85779       0.1881       1.1562
   1417.84253       0.2767       1.4855    1417.84253       0.2766       1.4844
   1417.82727       0.4992       1.4352    1417.82727       0.4991       1.4341
   1417.81201       0.4592       1.2733    1417.81201       0.4591       1.2723
   1417.79675       0.5901       1.4385    1417.79675       0.5900       1.4375
   1417.78149       0.4892       1.6160    1417.78149       0.4891       1.6149
   1417.76624       0.4639       1.7148    1417.76624       0.4639       1.7135
   1417.75098       0.7389       1.5634    1417.75098       0.7388       1.5622
   1417.73572       0.7778       1.3211    1417.73572       0.7776       1.3202
   1417.72046       0.4358       1.4186    1417.72046       0.4358       1.4175
   1417.70520       0.5332       1.3116    1417.70520       0.5331       1.3106
   1417.68994       0.4130       1.6248    1417.68994       0.4130       1.6236
   1417.67468       0.3801       1.3795    1417.67468       0.3800       1.3785
   1417.65942       0.5063       1.7460    1417.65942       0.5062       1.7448
   1417.64417       0.2808       1.4503    1417.64417       0.2808       1.4492
   1417.62891       0.5905       1.5311    1417.62891       0.5904       1.5300
   1417.61365       0.5409       1.5873    1417.61365       0.5408       1.5862
   1417.59839       0.5767       1.4334    1417.59839       0.5766       1.4323
   1417.58313       0.4961       1.4063    1417.58313       0.4960       1.4053
   1417.56787       0.4277       1.4930    1417.56787       0.4276       1.4919
   1417.55261       0.7435       1.7085    1417.55261       0.7434       1.7072
   1417.53735       0.6350       1.6304    1417.53735       0.6348       1.6292
   1417.52209       0.3761       1.8063    1417.52209       0.3760       1.8050
   1417.50684       0.6051       1.5666    1417.50684       0.6049       1.5655
   1417.49158       0.4239       1.6053    1417.49158       0.4239       1.6041
   1417.47632       0.7392       1.6619    1417.47632       0.7390       1.6607
   1417.46106       0.7292       1.5656    1417.46106       0.7290       1.5645
   1417.44580       0.5362       1.5552    1417.44580       0.5361       1.5540
   1417.43054       0.6057       1.4787    1417.43054       0.6056       1.4776
   1417.41528       0.5900       1.3384    1417.41528       0.5898       1.3374
   1417.40002       0.7696       1.5179    1417.40002       0.7694       1.5168
   1417.38477       0.7487       1.7248    1417.38477       0.7486       1.7236
   1417.36951       0.5569       1.4056    1417.36951       0.5568       1.4046
   1417.35425       0.4886       1.7248    1417.35425       0.4885       1.7235
   1417.33899       0.7593       1.6423    1417.33899       0.7591       1.6410
   1417.32373       0.6841       1.5411    1417.32373       0.6840       1.5400
   1417.30847       0.6026       1.1220    1417.30847       0.6025       1.1211
   1417.29321       0.3590       1.4696    1417.29321       0.3589       1.4685
   1417.27795       0.4500       1.0651    1417.27795       0.4499       1.0644
   1417.26270       0.6828       1.3956    1417.26270       0.6827       1.3946
   1417.24744       0.8992       1.2838    1417.24744       0.8990       1.2828
   1417.23218       0.3127       1.3621    1417.23218       0.3126       1.3611
   1417.21692       0.7539       1.5230    1417.21692       0.7537       1.5219
   1417.20166       0.3339       1.4693    1417.20166       0.3339       1.4683
   1417.18640       0.5215       1.2861    1417.18640       0.5214       1.2851
   1417.17114       0.8183       1.8868    1417.17114       0.8182       1.8855
   1417.15588       0.6143       1.4821    1417.15588       0.6141       1.4810
   1417.14062       0.7340       1.6849    1417.14062       0.7338       1.6836
   1417.12537       0.5459       1.3205    1417.12537       0.5458       1.3195
   1417.11011       0.7666       1.8077    1417.11011       0.7664       1.8064
   1417.09485       0.9996       1.4609    1417.09485       0.9995       1.4598
   1417.07959       0.7009       1.4744    1417.07959       0.7008       1.4733
   1417.06433       0.7770       1.5154    1417.06433       0.7768       1.5143
   1417.04907       0.2294       1.3462    1417.04907       0.2294       1.3452
   1417.03381       0.6543       1.3901    1417.03381       0.6542       1.3891
   1417.01855       0.4617       1.5918    1417.01855       0.4616       1.5906
   1417.00330       1.0719       1.5618    1417.00330       1.0717       1.5607
   1416.98804       0.5803       1.6166    1416.98804       0.5802       1.6154
   1416.97278       0.7375       1.4725    1416.97278       0.7374       1.4714
   1416.95752       0.5113       1.5396    1416.95752       0.5112       1.5385
   1416.94226       0.6723       1.2254    1416.94226       0.6722       1.2245
   1416.92700       0.8395       1.4017    1416.92700       0.8394       1.4007
   1416.91174       1.0377       1.5509    1416.91174       1.0375       1.5497
   1416.89648       0.7790       1.5220    1416.89648       0.7788       1.5209
   1416.88123       0.6403       1.7589    1416.88123       0.6402       1.7576
   1416.86597       0.7550       2.0060    1416.86597       0.7549       2.0045
   1416.85071       1.1459       1.7092    1416.85071       1.1457       1.7079
   1416.83545       0.4927       1.3178    1416.83545       0.4926       1.3168
   1416.82019       0.8012       1.1827    1416.82019       0.8010       1.1818
   1416.80493       0.7391       1.2187    1416.80493       0.7390       1.2178
   1416.78967       0.7636       1.2759    1416.78967       0.7634       1.2749
   1416.77441       0.6978       1.6839    1416.77441       0.6977       1.6827
   1416.75916       0.7994       1.7585    1416.75916       0.7993       1.7572
   1416.74390       0.7390       1.4735    1416.74390       0.7389       1.4724
   1416.72864       0.6783       1.4946    1416.72864       0.6782       1.4935
   1416.71338       0.8470       1.7545    1416.71338       0.8468       1.7532
   1416.69812       0.7371       1.6730    1416.69812       0.7369       1.6718
   1416.68286       0.8253       1.6432    1416.68286       0.8252       1.6420
   1416.66760       0.7679       1.5566    1416.66760       0.7678       1.5554
   1416.65234       0.9190       1.3590    1416.65234       0.9188       1.3580
   1416.63708       0.9229       1.3293    1416.63708       0.9228       1.3283
   1416.62183       0.8275       1.3100    1416.62183       0.8273       1.3091
   1416.60657       1.0598       1.2674    1416.60657       1.0596       1.2665
   1416.59131       0.8604       1.7795    1416.59131       0.8603       1.7781
   1416.57605       0.7077       1.3855    1416.57605       0.7076       1.3844
   1416.56079       1.0237       1.6786    1416.56079       1.0235       1.6773
   1416.54553       1.0026       1.4571    1416.54553       1.0024       1.4560
   1416.53027       0.8385       1.5247    1416.53027       0.8383       1.5236
   1416.51501       0.9594       1.6056    1416.51501       0.9592       1.6044
   1416.49976       0.8820       1.5134    1416.49976       0.8818       1.5123
   1416.48450       1.2885       1.2370    1416.48450       1.2882       1.2361
   1416.46924       1.1314       1.2833    1416.46924       1.1312       1.2823
   1416.45398       0.7259       1.6306    1416.45398       0.7258       1.6294
   1416.43872       0.6749       1.6595    1416.43872       0.6747       1.6583
   1416.42346       0.8854       1.7247    1416.42346       0.8852       1.7235
   1416.40820       1.0222       1.3734    1416.40820       1.0220       1.3724
   1416.39294       1.2822       1.4200    1416.39294       1.2819       1.4190
   1416.37769       1.1643       1.2229    1416.37769       1.1641       1.2220
   1416.36243       0.8693       1.5476    1416.36243       0.8691       1.5465
   1416.34717       1.1864       1.3001    1416.34717       1.1861       1.2992
   1416.33191       0.9606       1.3105    1416.33191       0.9604       1.3095
   1416.31665       0.7508       1.4962    1416.31665       0.7507       1.4951
   1416.30139       1.2201       1.5775    1416.30139       1.2199       1.5763
   1416.28613       0.8406       1.3498    1416.28613       0.8404       1.3488
   1416.27087       1.0421       1.6848    1416.27087       1.0419       1.6836
   1416.25562       1.0782       1.2824    1416.25562       1.0780       1.2814
   1416.24036       1.1335       1.4661    1416.24036       1.1333       1.4650
   1416.22510       0.8311       1.5183    1416.22510       0.8310       1.5172
   1416.20984       0.8374       1.6036    1416.20984       0.8372       1.6024
   1416.19458       0.9106       1.5137    1416.19458       0.9104       1.5126
   1416.17932       1.4000       1.5523    1416.17932       1.3997       1.5512
   1416.16406       1.0150       1.3794    1416.16406       1.0148       1.3784
   1416.14880       0.9972       1.4222    1416.14880       0.9970       1.4211
   1416.13354       1.0863       1.3490    1416.13354       1.0861       1.3480
   1416.11829       1.1256       1.1239    1416.11829       1.1253       1.1231
   1416.10303       0.8164       1.7385    1416.10303       0.8163       1.7372
   1416.08777       0.9328       1.8262    1416.08777       0.9326       1.8249
   1416.07251       1.5118       1.3140    1416.07251       1.5115       1.3131
   1416.05725       1.1994       1.4979    1416.05725       1.1991       1.4968
   1416.04199       1.0340       1.1329    1416.04199       1.0338       1.1321
   1416.02673       1.2382       1.3959    1416.02673       1.2380       1.3949
   1416.01147       1.2005       1.3297    1416.01147       1.2003       1.3288
   1415.99622       0.7872       1.5507    1415.99622       0.7871       1.5495
