#     FILENAME=Skynet_59313_ASTR_M31_Langgin_Rachel_54392_3314.A.onoff.cal.txt
#     BASENAME=Skynet_59313_ASTR_M31_Langgin_Rachel_54392_3314
#      CONTROL=SKYNET
#     PROJCODE=Skynet_59313_ASTR_M31_Langgin_Rachel_54392
#     DATAROOT=/raid/scratch/cyborg/SkynetData
#      DATADIR=/raid/scratch/cyborg
#     DATADIR2=/raid/scratch/cyborg/SkynetData/Skynet_59313_ASTR_M31_Langgin_R
#     SCANNAME=2019_06_26_10
#     SRC_NAME=ASTR_M31_Langgin_Rachel
#     OBSERVER=haverford2_26746
#     DATE_OBS=2021-04-09T17:27:21.990
#        OBSID=54392
#      SCANNUM=3314
#          MJD=59313.7273378
#          UTC=62842
#     SCANTYPE=offon
#     DATAMODE=HIRES
#     RECEIVER=Rx1_2
#      OBSFREQ=1395.0000
# Actual_FREQ1=1421.8800,
# Actual_FREQ2=1406.2550
#    LO1Tuning=6856.2600
#     RFFILTER=1355_1435
#        OBSBW=-15.6250
#     EFFBANDW=15.6250
#        NCHAN=1024
#    STARTCHAN=51
#     STOPCHAN=972
#         TINT=0.9999
#         TBIN=0.00419430
#       ACCLEN=2048 
#     DURATION=449.00
#     EXPOSURE=401.98
#        FOCUS=37.115
#       RA,DEC=00:59:00.40, 41:16:07.05
#      RA(deg)=12.68512
#     DEC(deg)=41.26870
#   WIDTH(deg)=3.0136x0.0183
#    AZIM(deg)=298.8178
#    ELEV(deg)=82.9771
#     COORDREF=RA_DEC_
#         HREF=10.6846
#         VREF=41.2687
#      RADESYS=FK5
#       OFFSYS=RADEC
#      EQUINOX=2000.00
#     IFATTENS=22.00, 14.00
#   BALANCELEV=1.200 
#   POWER_XLYR=[1.32, 1.23] 
#       VELDEF=RADI-OBS 
#     VELOCITY=0.000 
#         NPOL=2 
#      POLMODE=Linear 
#      POLTYPE=XXYY 
#      WARNING=None 
#     NOISECAL=HI 
#       PRECAL=5 
#      POSTCAL=5 
#     CRYOTEMP=15 
#      BOXTEMP=29 
#         TSYS=XX1:34.60, YY1:53.71
#         TSYS=XX2:38.95, YY2:46.65
#         TCAL=XX1:9.17, YY1:10.07
#         TCAL=XX2:9.16, YY2:9.99
# Calibrated spectra: Tsys*(ON-OFF)/OFF 
#                
#                
#Freq1(MHz)         XX1          YY1   Freq2(MHz)       XX2         YY2 
   1428.91430      -3.4994     -11.6610    1413.28930      -4.3298      -9.7405
   1428.89904      -3.4673     -11.5747    1413.27404      -4.3158      -9.7747
   1428.88378      -3.5225     -11.6520    1413.25878      -4.2949      -9.7466
   1428.86853      -3.5226     -11.5552    1413.24353      -4.2850      -9.7069
   1428.85327      -3.5218     -11.6206    1413.22827      -4.3146      -9.7376
   1428.83801      -3.4641     -11.5394    1413.21301      -4.3356      -9.7281
   1428.82275      -3.4796     -11.5287    1413.19775      -4.3180      -9.7289
   1428.80749      -3.4802     -11.5498    1413.18249      -4.3208      -9.7446
   1428.79223      -3.5024     -11.5842    1413.16723      -4.3531      -9.7048
   1428.77697      -3.4672     -11.6361    1413.15197      -4.3088      -9.7784
   1428.76171      -3.4507     -11.5978    1413.13671      -4.3486      -9.6979
   1428.74646      -3.4731     -11.5803    1413.12146      -4.3694      -9.7184
   1428.73120      -3.4851     -11.5492    1413.10620      -4.3811      -9.7064
   1428.71594      -3.4456     -11.5573    1413.09094      -4.3470      -9.7519
   1428.70068      -3.4584     -11.5534    1413.07568      -4.3880      -9.6906
   1428.68542      -3.4001     -11.5932    1413.06042      -4.3412      -9.7105
   1428.67016      -3.4193     -11.5989    1413.04516      -4.3707      -9.6613
   1428.65490      -3.4229     -11.5847    1413.02990      -4.4107      -9.6337
   1428.63964      -3.3854     -11.4830    1413.01464      -4.3388      -9.7200
   1428.62438      -3.4123     -11.5421    1412.99938      -4.3720      -9.6694
   1428.60913      -3.3708     -11.5334    1412.98413      -4.3998      -9.6871
   1428.59387      -3.3934     -11.5498    1412.96887      -4.4278      -9.6939
   1428.57861      -3.4298     -11.5576    1412.95361      -4.3599      -9.6803
   1428.56335      -3.4072     -11.5501    1412.93835      -4.4080      -9.6437
   1428.54809      -3.3764     -11.4988    1412.92309      -4.3598      -9.7022
   1428.53283      -3.3763     -11.5223    1412.90783      -4.3682      -9.7328
   1428.51757      -3.3367     -11.5482    1412.89257      -4.4355      -9.6972
   1428.50231      -3.3441     -11.5376    1412.87731      -4.3590      -9.7063
   1428.48706      -3.3712     -11.5236    1412.86206      -4.4678      -9.6911
   1428.47180      -3.3381     -11.4627    1412.84680      -4.4224      -9.6219
   1428.45654      -3.3392     -11.5131    1412.83154      -4.3863      -9.6702
   1428.44128      -3.3300     -11.5596    1412.81628      -4.3955      -9.6912
   1428.42602      -3.3725     -11.5333    1412.80102      -4.4253      -9.6658
   1428.41076      -3.3210     -11.5022    1412.78576      -4.3900      -9.6409
   1428.39550      -3.3166     -11.4659    1412.77050      -4.4240      -9.6385
   1428.38024      -3.3372     -11.4480    1412.75524      -4.4179      -9.6585
   1428.36499      -3.3178     -11.4873    1412.73999      -4.4757      -9.6855
   1428.34973      -3.3176     -11.4968    1412.72473      -4.4227      -9.7092
   1428.33447      -3.3522     -11.5017    1412.70947      -4.4076      -9.6686
   1428.31921      -3.3320     -11.4339    1412.69421      -4.4764      -9.6693
   1428.30395      -3.2939     -11.4800    1412.67895      -4.5051      -9.6409
   1428.28869      -3.3274     -11.4520    1412.66369      -4.4545      -9.6232
   1428.27343      -3.2828     -11.5272    1412.64843      -4.4419      -9.5928
   1428.25817      -3.2820     -11.4488    1412.63317      -4.4813      -9.6410
   1428.24292      -3.2791     -11.4329    1412.61792      -4.4441      -9.6406
   1428.22766      -3.3259     -11.5026    1412.60266      -4.4455      -9.6365
   1428.21240      -3.2567     -11.4411    1412.58740      -4.4266      -9.6596
   1428.19714      -3.2636     -11.3819    1412.57214      -4.4176      -9.5996
   1428.18188      -3.2699     -11.4413    1412.55688      -4.4348      -9.6017
   1428.16662      -3.2658     -11.4098    1412.54162      -4.4833      -9.5625
   1428.15136      -3.2297     -11.3627    1412.52636      -4.4352      -9.6013
   1428.13610      -3.2821     -11.3908    1412.51110      -4.5224      -9.5531
   1428.12084      -3.1990     -11.3576    1412.49584      -4.5009      -9.6579
   1428.10559      -3.2595     -11.3854    1412.48059      -4.4916      -9.6117
   1428.09033      -3.2555     -11.3841    1412.46533      -4.4372      -9.5806
   1428.07507      -3.2509     -11.3347    1412.45007      -4.5046      -9.6324
   1428.05981      -3.2525     -11.4051    1412.43481      -4.4443      -9.6383
   1428.04455      -3.2189     -11.3287    1412.41955      -4.4701      -9.6221
   1428.02929      -3.2407     -11.3992    1412.40429      -4.4963      -9.5811
   1428.01403      -3.2223     -11.3772    1412.38903      -4.4544      -9.6236
   1427.99877      -3.2573     -11.3085    1412.37377      -4.5151      -9.5955
   1427.98352      -3.2185     -11.3410    1412.35852      -4.4828      -9.5611
   1427.96826      -3.2044     -11.3487    1412.34326      -4.4947      -9.6098
   1427.95300      -3.1985     -11.3228    1412.32800      -4.4647      -9.6082
   1427.93774      -3.2186     -11.2491    1412.31274      -4.4853      -9.6066
   1427.92248      -3.2309     -11.3644    1412.29748      -4.4956      -9.5982
   1427.90722      -3.1948     -11.2751    1412.28222      -4.4918      -9.6254
   1427.89196      -3.2125     -11.3250    1412.26696      -4.5093      -9.5147
   1427.87670      -3.2391     -11.2663    1412.25170      -4.4550      -9.4898
   1427.86145      -3.2040     -11.2858    1412.23645      -4.5019      -9.5516
   1427.84619      -3.1796     -11.2445    1412.22119      -4.4736      -9.5364
   1427.83093      -3.1802     -11.3373    1412.20593      -4.4916      -9.5822
   1427.81567      -3.2175     -11.2971    1412.19067      -4.4639      -9.5741
   1427.80041      -3.2039     -11.2784    1412.17541      -4.5058      -9.5062
   1427.78515      -3.1585     -11.2636    1412.16015      -4.4983      -9.5359
   1427.76989      -3.2113     -11.2479    1412.14489      -4.5106      -9.5528
   1427.75463      -3.1709     -11.2108    1412.12963      -4.5144      -9.5342
   1427.73937      -3.1853     -11.2459    1412.11437      -4.4495      -9.5357
   1427.72412      -3.1866     -11.1690    1412.09912      -4.5724      -9.4871
   1427.70886      -3.1611     -11.2054    1412.08386      -4.5322      -9.5114
   1427.69360      -3.1633     -11.1994    1412.06860      -4.5153      -9.5337
   1427.67834      -3.1774     -11.1612    1412.05334      -4.5544      -9.4950
   1427.66308      -3.1310     -11.1814    1412.03808      -4.5041      -9.6051
   1427.64782      -3.1174     -11.2167    1412.02282      -4.5407      -9.5093
   1427.63256      -3.1707     -11.1401    1412.00756      -4.5338      -9.5472
   1427.61730      -3.1412     -11.1476    1411.99230      -4.5255      -9.5108
   1427.60205      -3.1712     -11.1701    1411.97705      -4.5273      -9.5265
   1427.58679      -3.1453     -11.0928    1411.96179      -4.5242      -9.4960
   1427.57153      -3.1608     -11.1550    1411.94653      -4.5235      -9.5504
   1427.55627      -3.1512     -11.1721    1411.93127      -4.5425      -9.4767
   1427.54101      -3.1416     -11.1200    1411.91601      -4.5318      -9.5107
   1427.52575      -3.1144     -11.0894    1411.90075      -4.5473      -9.4876
   1427.51049      -3.1651     -11.1545    1411.88549      -4.5676      -9.5455
   1427.49523      -3.1244     -11.0791    1411.87023      -4.5146      -9.5111
   1427.47998      -3.1235     -11.0771    1411.85498      -4.5558      -9.5555
   1427.46472      -3.1609     -11.0253    1411.83972      -4.5260      -9.5151
   1427.44946      -3.1222     -11.0748    1411.82446      -4.5123      -9.4953
   1427.43420      -3.1050     -11.0358    1411.80920      -4.5698      -9.4722
   1427.41894      -3.1143     -11.0410    1411.79394      -4.5379      -9.4724
   1427.40368      -3.1179     -10.9927    1411.77868      -4.5171      -9.4946
   1427.38842      -3.1135     -11.0453    1411.76342      -4.5391      -9.4495
   1427.37316      -3.1366     -11.0738    1411.74816      -4.5308      -9.4677
   1427.35791      -3.1377     -10.9871    1411.73291      -4.5545      -9.4787
   1427.34265      -3.1218     -10.9884    1411.71765      -4.5072      -9.4958
   1427.32739      -3.0998     -10.9741    1411.70239      -4.5461      -9.4610
   1427.31213      -3.1741     -10.9774    1411.68713      -4.5065      -9.5232
   1427.29687      -3.1343     -11.0437    1411.67187      -4.5295      -9.4991
   1427.28161      -3.1210     -10.9233    1411.65661      -4.4966      -9.4858
   1427.26635      -3.1789     -10.9674    1411.64135      -4.4991      -9.4922
   1427.25109      -3.1410     -10.9524    1411.62609      -4.5144      -9.4745
   1427.23583      -3.1231     -10.9337    1411.61083      -4.4879      -9.4223
   1427.22058      -3.1006     -10.9334    1411.59558      -4.5066      -9.4345
   1427.20532      -3.1285     -10.8761    1411.58032      -4.5686      -9.4453
   1427.19006      -3.1245     -10.8552    1411.56506      -4.4953      -9.4046
   1427.17480      -3.1163     -10.8844    1411.54980      -4.5193      -9.4456
   1427.15954      -3.1247     -10.9094    1411.53454      -4.5553      -9.3864
   1427.14428      -3.0801     -10.8471    1411.51928      -4.5161      -9.4786
   1427.12902      -3.1227     -10.8413    1411.50402      -4.5415      -9.4427
   1427.11376      -3.1180     -10.8514    1411.48876      -4.5142      -9.4363
   1427.09851      -3.0646     -10.8399    1411.47351      -4.5468      -9.4015
   1427.08325      -3.0906     -10.8059    1411.45825      -4.4763      -9.4404
   1427.06799      -3.1399     -10.7786    1411.44299      -4.5264      -9.3501
   1427.05273      -3.0917     -10.7617    1411.42773      -4.5064      -9.4183
   1427.03747      -3.1259     -10.7763    1411.41247      -4.4606      -9.4057
   1427.02221      -3.1046     -10.7068    1411.39721      -4.5253      -9.4237
   1427.00695      -3.0856     -10.7395    1411.38195      -4.5501      -9.4374
   1426.99169      -3.1084     -10.7715    1411.36669      -4.5152      -9.4414
   1426.97644      -3.1079     -10.7424    1411.35144      -4.5847      -9.4235
   1426.96118      -3.1383     -10.7510    1411.33618      -4.5213      -9.3422
   1426.94592      -3.0952     -10.6767    1411.32092      -4.4671      -9.3744
   1426.93066      -3.1019     -10.7657    1411.30566      -4.4995      -9.3520
   1426.91540      -3.1375     -10.7466    1411.29040      -4.5049      -9.3621
   1426.90014      -3.0796     -10.6871    1411.27514      -4.4639      -9.3675
   1426.88488      -3.1388     -10.6593    1411.25988      -4.5125      -9.4157
   1426.86962      -3.0904     -10.6648    1411.24462      -4.5498      -9.3694
   1426.85437      -3.1106     -10.5587    1411.22937      -4.4806      -9.3511
   1426.83911      -3.1022     -10.6025    1411.21411      -4.4764      -9.3969
   1426.82385      -3.0697     -10.6714    1411.19885      -4.5001      -9.3183
   1426.80859      -3.1116     -10.6789    1411.18359      -4.5031      -9.3315
   1426.79333      -3.1434     -10.5754    1411.16833      -4.5512      -9.3600
   1426.77807      -3.0878     -10.6327    1411.15307      -4.5419      -9.3371
   1426.76281      -3.1200     -10.6038    1411.13781      -4.5286      -9.3380
   1426.74755      -3.1084     -10.5070    1411.12255      -4.5394      -9.3566
   1426.73229      -3.0851     -10.5758    1411.10729      -4.5099      -9.3643
   1426.71704      -3.1135     -10.6291    1411.09204      -4.4745      -9.3558
   1426.70178      -3.1043     -10.5200    1411.07678      -4.5032      -9.2967
   1426.68652      -3.1636     -10.4946    1411.06152      -4.5447      -9.3777
   1426.67126      -3.1137     -10.5064    1411.04626      -4.5113      -9.3162
   1426.65600      -3.1437     -10.5177    1411.03100      -4.5139      -9.3394
   1426.64074      -3.0982     -10.5019    1411.01574      -4.5114      -9.2979
   1426.62548      -3.1198     -10.4438    1411.00048      -4.5061      -9.3051
   1426.61022      -3.1420     -10.2308    1410.98522      -4.4754      -9.3341
   1426.59497      -3.1413     -10.2236    1410.96997      -4.5105      -9.3087
   1426.57971      -3.0955     -10.4416    1410.95471      -4.4900      -9.2976
   1426.56445      -3.0988     -10.4379    1410.93945      -4.5046      -9.2674
   1426.54919      -3.1322     -10.3884    1410.92419      -4.4716      -9.2859
   1426.53393      -3.1070     -10.4119    1410.90893      -4.4482      -9.2864
   1426.51867      -3.0870     -10.4382    1410.89367      -4.4952      -9.2763
   1426.50341      -3.1032     -10.4499    1410.87841      -4.4665      -9.2453
   1426.48815      -3.0914     -10.4070    1410.86315      -4.4810      -9.2910
   1426.47290      -3.0730     -10.3381    1410.84790      -4.4658      -9.2379
   1426.45764      -3.0945     -10.3846    1410.83264      -4.4598      -9.2220
   1426.44238      -3.1082     -10.3371    1410.81738      -4.4237      -9.2498
   1426.42712      -3.1200     -10.3336    1410.80212      -4.4329      -9.2197
   1426.41186      -3.1006     -10.3814    1410.78686      -4.4672      -9.2621
   1426.39660      -3.1310     -10.2578    1410.77160      -4.4686      -9.2508
   1426.38134      -3.1246     -10.3010    1410.75634      -4.4704      -9.2332
   1426.36608      -3.1600     -10.2706    1410.74108      -4.4818      -9.2370
   1426.35083      -3.1402     -10.2508    1410.72583      -4.4394      -9.1909
   1426.33557      -3.1438     -10.2682    1410.71057      -4.4776      -9.2180
   1426.32031      -3.1040     -10.2936    1410.69531      -4.4932      -9.2560
   1426.30505      -3.1515     -10.2081    1410.68005      -4.4501      -9.2067
   1426.28979      -3.1071     -10.2033    1410.66479      -4.4398      -9.1930
   1426.27453      -3.1369     -10.2243    1410.64953      -4.4454      -9.1939
   1426.25927      -3.1113     -10.2161    1410.63427      -4.4462      -9.2046
   1426.24401      -3.1226     -10.1654    1410.61901      -4.4432      -9.2240
   1426.22875      -3.1420     -10.1384    1410.60375      -4.4423      -9.1986
   1426.21350      -3.1597     -10.1582    1410.58850      -4.4003      -9.2264
   1426.19824      -3.1059     -10.1611    1410.57324      -4.4668      -9.1504
   1426.18298      -3.0733     -10.1841    1410.55798      -4.4505      -9.2375
   1426.16772      -3.1439     -10.1274    1410.54272      -4.4148      -9.1508
   1426.15246      -3.1175     -10.1192    1410.52746      -4.4024      -9.1661
   1426.13720      -3.1541     -10.1096    1410.51220      -4.4142      -9.1512
   1426.12194      -3.1936     -10.1425    1410.49694      -4.4063      -9.1965
   1426.10668      -3.1548     -10.1278    1410.48168      -4.3865      -9.1471
   1426.09143      -3.1175     -10.0509    1410.46643      -4.4064      -9.1056
   1426.07617      -3.0973     -10.0541    1410.45117      -4.3708      -9.1157
   1426.06091      -3.1255     -10.0216    1410.43591      -4.3976      -9.1369
   1426.04565      -3.1271     -10.0300    1410.42065      -4.4191      -9.1396
   1426.03039      -3.1425     -10.0819    1410.40539      -4.4262      -9.1292
   1426.01513      -3.1695     -10.0338    1410.39013      -4.4092      -9.0876
   1425.99987      -3.1398      -9.9526    1410.37487      -4.4233      -9.1525
   1425.98461      -3.1877      -9.9588    1410.35961      -4.4178      -9.0846
   1425.96936      -3.1293      -9.9717    1410.34436      -4.4022      -9.1115
   1425.95410      -3.1680      -9.9667    1410.32910      -4.3625      -9.1110
   1425.93884      -3.1378      -9.9606    1410.31384      -4.3651      -9.1537
   1425.92358      -3.1520      -9.9308    1410.29858      -4.3407      -9.1093
   1425.90832      -3.1379      -9.9396    1410.28332      -4.4235      -9.0406
   1425.89306      -3.1676      -9.9490    1410.26806      -4.3304      -9.0455
   1425.87780      -3.1455      -9.9162    1410.25280      -4.3743      -9.0594
   1425.86254      -3.1931      -9.8882    1410.23754      -4.3414      -9.0970
   1425.84729      -3.1389      -9.8417    1410.22229      -4.3423      -9.0611
   1425.83203      -3.1493      -9.9104    1410.20703      -4.3960      -9.0584
   1425.81677      -3.1415      -9.8764    1410.19177      -4.3764      -9.0097
   1425.80151      -3.1407      -9.8253    1410.17651      -4.3274      -8.9983
   1425.78625      -3.1643      -9.8264    1410.16125      -4.3283      -9.0447
   1425.77099      -3.0901      -9.7992    1410.14599      -4.3311      -8.9872
   1425.75573      -3.1273      -9.8044    1410.13073      -4.3133      -9.0112
   1425.74047      -3.1275      -9.8264    1410.11547      -4.3376      -9.0366
   1425.72521      -3.1011      -9.8047    1410.10021      -4.3181      -8.9951
   1425.70996      -3.1944      -9.7688    1410.08496      -4.3261      -8.9558
   1425.69470      -3.1368      -9.7443    1410.06970      -4.3474      -9.0042
   1425.67944      -3.1356      -9.7335    1410.05444      -4.3122      -9.0423
   1425.66418      -3.1606      -9.7394    1410.03918      -4.3211      -8.9825
   1425.64892      -3.1419      -9.7258    1410.02392      -4.2907      -8.9855
   1425.63366      -3.1505      -9.7942    1410.00866      -4.2843      -8.9796
   1425.61840      -3.1432      -9.7294    1409.99340      -4.3130      -8.9815
   1425.60314      -3.1319      -9.6998    1409.97814      -4.2431      -8.9281
   1425.58789      -3.1220      -9.7308    1409.96289      -4.2929      -8.9483
   1425.57263      -3.0822      -9.6396    1409.94763      -4.2668      -8.9442
   1425.55737      -3.1343      -9.6130    1409.93237      -4.2555      -8.9305
   1425.54211      -3.1208      -9.6881    1409.91711      -4.0474      -8.4761
   1425.52685      -3.1497      -9.6730    1409.90185      -4.2773      -9.0587
   1425.51159      -3.1344      -9.6407    1409.88659      -4.2423      -9.0586
   1425.49633      -3.1735      -9.6301    1409.87133      -4.2829      -8.9999
   1425.48107      -3.1587      -9.5735    1409.85607      -4.2722      -8.9430
   1425.46582      -3.1360      -9.5845    1409.84082      -4.2302      -8.8745
   1425.45056      -3.0965      -9.5856    1409.82556      -4.2516      -8.8609
   1425.43530      -3.0833      -9.5905    1409.81030      -4.2552      -8.9330
   1425.42004      -3.0938      -9.5387    1409.79504      -4.2093      -8.8840
   1425.40478      -3.1049      -9.5149    1409.77978      -4.2320      -8.8909
   1425.38952      -3.1448      -9.6046    1409.76452      -4.2337      -8.8809
   1425.37426      -3.1306      -9.5622    1409.74926      -4.2751      -8.8417
   1425.35900      -3.1434      -9.5461    1409.73400      -4.2503      -8.8202
   1425.34375      -3.1160      -9.4989    1409.71875      -4.2379      -8.8306
   1425.32849      -3.1636      -9.4786    1409.70349      -4.2176      -8.8909
   1425.31323      -3.1186      -9.4901    1409.68823      -4.2303      -8.8820
   1425.29797      -3.1419      -9.4787    1409.67297      -4.2483      -8.7862
   1425.28271      -3.1137      -9.4997    1409.65771      -4.1802      -8.8364
   1425.26745      -3.1343      -9.4754    1409.64245      -4.2007      -8.8303
   1425.25219      -3.1082      -9.4590    1409.62719      -4.1792      -8.8109
   1425.23693      -3.0897      -9.4138    1409.61193      -4.1792      -8.8108
   1425.22167      -3.1331      -9.4537    1409.59667      -4.1977      -8.8284
   1425.20642      -3.1473      -9.4107    1409.58142      -4.2057      -8.8286
   1425.19116      -3.1044      -9.3829    1409.56616      -4.1497      -8.7455
   1425.17590      -3.1481      -9.3587    1409.55090      -4.2003      -8.7860
   1425.16064      -3.1678      -9.3633    1409.53564      -4.1095      -8.7726
   1425.14538      -3.1206      -9.3902    1409.52038      -4.1804      -8.7906
   1425.13012      -3.1364      -9.3206    1409.50512      -4.1936      -8.7955
   1425.11486      -3.1203      -9.3211    1409.48986      -4.1928      -8.7349
   1425.09960      -3.1469      -9.3637    1409.47460      -4.1552      -8.7563
   1425.08435      -3.0818      -9.2999    1409.45935      -4.1365      -8.7157
   1425.06909      -3.1545      -9.3446    1409.44409      -4.1618      -8.7746
   1425.05383      -3.1102      -9.3028    1409.42883      -4.1445      -8.7310
   1425.03857      -3.1468      -9.2501    1409.41357      -4.1882      -8.7145
   1425.02331      -3.1191      -9.3145    1409.39831      -4.1489      -8.7016
   1425.00805      -3.1477      -9.2143    1409.38305      -4.1494      -8.7203
   1424.99279      -3.1087      -9.2908    1409.36779      -4.1661      -8.7233
   1424.97753      -3.1108      -9.3136    1409.35253      -4.1355      -8.7072
   1424.96228      -3.0971      -9.2352    1409.33728      -4.1075      -8.7609
   1424.94702      -3.1230      -9.2847    1409.32202      -4.0984      -8.7046
   1424.93176      -3.1129      -9.2398    1409.30676      -4.1344      -8.6391
   1424.91650      -3.1258      -9.2248    1409.29150      -4.0784      -8.6890
   1424.90124      -3.1202      -9.1799    1409.27624      -4.1018      -8.6804
   1424.88598      -3.1548      -9.1698    1409.26098      -4.0743      -8.6590
   1424.87072      -3.1180      -9.1794    1409.24572      -4.0999      -8.6859
   1424.85546      -3.0847      -9.1631    1409.23046      -4.0790      -8.6150
   1424.84021      -3.1512      -9.1772    1409.21521      -4.0878      -8.5956
   1424.82495      -3.1032      -9.1784    1409.19995      -4.0638      -8.6423
   1424.80969      -3.1005      -9.1203    1409.18469      -4.0801      -8.6841
   1424.79443      -3.1242      -9.1614    1409.16943      -4.0839      -8.5894
   1424.77917      -3.1250      -9.1085    1409.15417      -4.1214      -8.6477
   1424.76391      -3.1134      -9.0842    1409.13891      -4.0704      -8.5873
   1424.74865      -3.1161      -9.1647    1409.12365      -4.0586      -8.5817
   1424.73339      -3.1426      -9.1179    1409.10839      -4.1008      -8.6032
   1424.71813      -3.1132      -9.0677    1409.09313      -4.0497      -8.5758
   1424.70288      -3.1024      -9.1721    1409.07788      -4.0765      -8.5878
   1424.68762      -3.1453      -9.0944    1409.06262      -4.0454      -8.5000
   1424.67236      -3.1468      -9.1182    1409.04736      -4.1049      -8.5228
   1424.65710      -3.1084      -9.1147    1409.03210      -3.8954      -8.6641
   1424.64184      -3.1167      -9.0327    1409.01684      -4.0251      -8.5969
   1424.62658      -3.1183      -9.1126    1409.00158      -4.0346      -8.5211
   1424.61132      -3.1466      -9.1199    1408.98632      -3.9826      -8.5403
   1424.59606      -3.1043      -9.1051    1408.97106      -4.0243      -8.5073
   1424.58081      -3.0991      -9.0664    1408.95581      -4.0273      -8.4855
   1424.56555      -3.0925      -9.0244    1408.94055      -4.0453      -8.5303
   1424.55029      -3.0910      -8.9848    1408.92529      -3.9960      -8.4523
   1424.53503      -3.0783      -9.0590    1408.91003      -4.0392      -8.5025
   1424.51977      -3.1227      -8.9939    1408.89477      -4.0027      -8.5028
   1424.50451      -3.1500      -8.9973    1408.87951      -3.9985      -8.4818
   1424.48925      -3.1419      -8.9416    1408.86425      -4.0414      -8.4620
   1424.47399      -3.0954      -9.0104    1408.84899      -4.0042      -8.4800
   1424.45874      -3.1277      -9.0166    1408.83374      -3.9876      -8.4758
   1424.44348      -3.1083      -8.9373    1408.81848      -3.9992      -8.4624
   1424.42822      -3.0966      -8.8876    1408.80322      -3.9759      -8.5474
   1424.41296      -3.1549      -8.9858    1408.78796      -4.0228      -8.4416
   1424.39770      -3.1242      -8.9075    1408.77270      -3.9906      -8.4613
   1424.38244      -3.1091      -8.8975    1408.75744      -4.0310      -8.3834
   1424.36718      -3.1404      -8.9027    1408.74218      -3.9796      -8.4586
   1424.35192      -3.1183      -8.9147    1408.72692      -3.9725      -8.4330
   1424.33667      -3.1029      -8.9047    1408.71167      -3.9852      -8.4004
   1424.32141      -3.1448      -8.9716    1408.69641      -4.0020      -8.3862
   1424.30615      -3.1307      -8.8688    1408.68115      -3.9627      -8.4027
   1424.29089      -3.1205      -8.8848    1408.66589      -4.0041      -8.4123
   1424.27563      -3.1824      -8.8188    1408.65063      -3.9666      -8.4095
   1424.26037      -3.1428      -8.8934    1408.63537      -3.9732      -8.4045
   1424.24511      -3.1246      -8.9269    1408.62011      -3.9786      -8.3468
   1424.22985      -3.1226      -8.8471    1408.60485      -3.9694      -8.3782
   1424.21459      -3.1460      -8.9203    1408.58959      -3.9557      -8.3731
   1424.19934      -3.1481      -8.7836    1408.57434      -3.9903      -8.3421
   1424.18408      -3.1272      -8.8025    1408.55908      -3.9319      -8.3296
   1424.16882      -3.0744      -8.8304    1408.54382      -4.0016      -8.3708
   1424.15356      -3.1310      -8.9226    1408.52856      -3.9592      -8.2942
   1424.13830      -3.1038      -8.8420    1408.51330      -3.9735      -8.3253
   1424.12304      -3.1641      -8.7943    1408.49804      -3.9711      -8.3447
   1424.10778      -3.1114      -8.7906    1408.48278      -3.9517      -8.3311
   1424.09252      -3.1386      -8.8496    1408.46752      -3.9634      -8.3557
   1424.07727      -3.1356      -8.8040    1408.45227      -3.9903      -8.2674
   1424.06201      -3.1466      -8.8334    1408.43701      -3.9635      -8.2906
   1424.04675      -3.1483      -8.7679    1408.42175      -3.9307      -8.3007
   1424.03149      -3.1436      -8.7662    1408.40649      -3.9308      -8.3053
   1424.01623      -3.1685      -8.8372    1408.39123      -3.9530      -8.3888
   1424.00097      -3.1310      -8.7542    1408.37597      -3.9790      -8.3093
   1423.98571      -3.1553      -8.7634    1408.36071      -3.9302      -8.3041
   1423.97045      -3.1731      -8.7680    1408.34545      -3.9427      -8.2673
   1423.95520      -3.1644      -8.7701    1408.33020      -3.9386      -8.2672
   1423.93994      -3.1417      -8.7366    1408.31494      -3.9388      -8.2842
   1423.92468      -3.1555      -8.7977    1408.29968      -3.9447      -8.3097
   1423.90942      -3.1822      -8.7764    1408.28442      -3.9520      -8.1955
   1423.89416      -3.1844      -8.7065    1408.26916      -3.9460      -8.2801
   1423.87890      -3.1496      -8.8254    1408.25390      -3.8972      -8.2888
   1423.86364      -3.1281      -8.7718    1408.23864      -3.8900      -8.2484
   1423.84838      -3.1592      -8.7768    1408.22338      -3.9153      -8.2243
   1423.83312      -3.1272      -8.7623    1408.20812      -3.9521      -8.2357
   1423.81787      -3.1488      -8.7590    1408.19287      -3.9354      -8.2839
   1423.80261      -3.1323      -8.7613    1408.17761      -3.9157      -8.2029
   1423.78735      -3.1492      -8.7042    1408.16235      -3.9368      -8.1817
   1423.77209      -3.1233      -8.8016    1408.14709      -3.9236      -8.2124
   1423.75683      -3.1248      -8.7068    1408.13183      -3.9866      -8.2218
   1423.74157      -3.1758      -8.6840    1408.11657      -3.8958      -8.2008
   1423.72631      -3.1546      -8.7807    1408.10131      -3.9203      -8.2483
   1423.71105      -3.1529      -8.7166    1408.08605      -3.9592      -8.2051
   1423.69580      -3.1870      -8.7336    1408.07080      -3.9480      -8.2226
   1423.68054      -3.1707      -8.7023    1408.05554      -3.9439      -8.1571
   1423.66528      -3.1778      -8.7861    1408.04028      -3.9015      -8.1839
   1423.65002      -3.1634      -8.7855    1408.02502      -3.9348      -8.2180
   1423.63476      -3.1283      -8.7323    1408.00976      -3.8478      -8.1473
   1423.61950      -3.1843      -8.7032    1407.99450      -3.8974      -8.2098
   1423.60424      -3.1702      -8.6822    1407.97924      -3.9104      -8.2120
   1423.58898      -3.1643      -8.7569    1407.96398      -3.9298      -8.1999
   1423.57373      -3.1944      -8.7421    1407.94873      -3.9436      -8.1758
   1423.55847      -3.1835      -8.7421    1407.93347      -3.9278      -8.2083
   1423.54321      -3.1724      -8.7128    1407.91821      -3.9130      -8.1426
   1423.52795      -3.1798      -8.7583    1407.90295      -3.9139      -8.1181
   1423.51269      -3.2039      -8.7154    1407.88769      -3.9344      -8.2155
   1423.49743      -3.1882      -8.6992    1407.87243      -3.9470      -8.1014
   1423.48217      -3.1969      -8.7388    1407.85717      -3.9410      -8.1534
   1423.46691      -3.1686      -8.7033    1407.84191      -3.9896      -8.1042
   1423.45166      -3.1495      -8.7236    1407.82666      -3.9524      -8.1069
   1423.43640      -3.1647      -8.7015    1407.81140      -3.9424      -8.0700
   1423.42114      -3.2083      -8.7573    1407.79614      -3.8961      -8.1504
   1423.40588      -3.2075      -8.6986    1407.78088      -3.9478      -8.1253
   1423.39062      -3.1807      -8.7719    1407.76562      -3.9418      -8.1270
   1423.37536      -3.1503      -8.7416    1407.75036      -3.9577      -8.0877
   1423.36010      -3.1996      -8.7591    1407.73510      -3.9222      -8.1004
   1423.34484      -3.1729      -8.7494    1407.71984      -3.9442      -8.1344
   1423.32958      -3.2151      -8.7388    1407.70458      -3.9337      -8.1086
   1423.31433      -3.2108      -8.7512    1407.68933      -3.9636      -8.1431
   1423.29907      -3.1711      -8.7476    1407.67407      -3.9759      -8.0931
   1423.28381      -3.1731      -8.7725    1407.65881      -3.9303      -8.0428
   1423.26855      -3.2188      -8.8441    1407.64355      -3.9602      -8.1013
   1423.25329      -3.2053      -8.8027    1407.62829      -3.9450      -8.0590
   1423.23803      -3.1875      -8.7979    1407.61303      -3.9681      -8.0585
   1423.22277      -3.2022      -8.7600    1407.59777      -3.9541      -8.0764
   1423.20751      -3.1987      -8.7419    1407.58251      -3.9642      -8.0451
   1423.19226      -3.1560      -8.7880    1407.56726      -3.9103      -8.0796
   1423.17700      -3.1899      -8.7380    1407.55200      -3.9382      -8.0479
   1423.16174      -3.1559      -8.7562    1407.53674      -3.9844      -8.0823
   1423.14648      -3.1405      -8.7969    1407.52148      -3.9398      -8.0231
   1423.13122      -3.1643      -8.7393    1407.50622      -3.9573      -8.0508
   1423.11596      -3.1869      -8.8066    1407.49096      -3.9576      -8.0890
   1423.10070      -3.1203      -8.8040    1407.47570      -3.9448      -8.1366
   1423.08544      -3.1242      -8.7449    1407.46044      -3.9185      -8.1165
   1423.07019      -3.1567      -8.6785    1407.44519      -4.0114      -8.0607
   1423.05493      -3.0780      -8.6777    1407.42993      -3.9848      -8.0331
   1423.03967      -3.0968      -8.6322    1407.41467      -3.9857      -8.0248
   1423.02441      -3.0797      -8.6347    1407.39941      -3.9775      -8.0451
   1423.00915      -3.0215      -8.6541    1407.38415      -3.9696      -8.0584
   1422.99389      -3.0632      -8.6502    1407.36889      -3.9729      -8.0357
   1422.97863      -3.0338      -8.5598    1407.35363      -3.9767      -8.0499
   1422.96337      -3.0199      -8.5897    1407.33837      -3.9341      -8.0218
   1422.94812      -3.0216      -8.5977    1407.32312      -3.9407      -8.0228
   1422.93286      -3.0120      -8.5664    1407.30786      -3.9845      -8.0620
   1422.91760      -2.9925      -8.5498    1407.29260      -3.9646      -8.0417
   1422.90234      -2.9639      -8.5495    1407.27734      -3.9600      -8.0473
   1422.88708      -2.9524      -8.5809    1407.26208      -3.9796      -8.0292
   1422.87182      -2.9257      -8.5211    1407.24682      -3.9842      -8.0306
   1422.85656      -2.9186      -8.5008    1407.23156      -3.9558      -8.0326
   1422.84130      -2.9062      -8.5309    1407.21630      -3.9793      -8.0731
   1422.82604      -2.9656      -8.5461    1407.20104      -3.9818      -8.0349
   1422.81079      -2.9510      -8.5450    1407.18579      -3.9874      -8.0369
   1422.79553      -2.9454      -8.4996    1407.17053      -3.9590      -8.0157
   1422.78027      -2.9621      -8.5477    1407.15527      -3.9885      -8.0327
   1422.76501      -2.9965      -8.5473    1407.14001      -4.0073      -7.9933
   1422.74975      -2.9868      -8.5570    1407.12475      -3.9865      -8.0224
   1422.73449      -2.9648      -8.5761    1407.10949      -3.9523      -8.0519
   1422.71923      -2.9735      -8.6141    1407.09423      -4.0077      -8.0330
   1422.70397      -2.9463      -8.6445    1407.07897      -4.0091      -8.0231
   1422.68872      -2.9363      -8.5653    1407.06372      -3.9599      -7.9998
   1422.67346      -2.9588      -8.6000    1407.04846      -4.0122      -7.9858
   1422.65820      -2.9598      -8.5376    1407.03320      -3.9394      -8.0096
   1422.64294      -2.9234      -8.5583    1407.01794      -3.9724      -8.0654
   1422.62768      -2.9093      -8.5697    1407.00268      -3.9587      -8.0153
   1422.61242      -2.8953      -8.5076    1406.98742      -4.0363      -8.0062
   1422.59716      -2.8736      -8.5393    1406.97216      -4.0322      -8.0049
   1422.58190      -2.8252      -8.5191    1406.95690      -3.9978      -7.9874
   1422.56665      -2.8138      -8.4057    1406.94165      -3.9701      -7.9801
   1422.55139      -2.7651      -8.4351    1406.92639      -3.9979      -7.9791
   1422.53613      -2.7524      -8.4563    1406.91113      -4.0078      -8.0502
   1422.52087      -2.7219      -8.3225    1406.89587      -3.9869      -8.0188
   1422.50561      -2.7122      -8.4120    1406.88061      -3.9840      -8.0526
   1422.49035      -2.7193      -8.3981    1406.86535      -3.9875      -8.0203
   1422.47509      -2.6745      -8.3105    1406.85009      -3.9831      -8.0348
   1422.45983      -2.6472      -8.3714    1406.83483      -3.9722      -8.0104
   1422.44458      -2.6444      -8.3153    1406.81958      -4.0068      -8.0401
   1422.42932      -2.5852      -8.2362    1406.80432      -4.0192      -8.0413
   1422.41406      -2.5704      -8.2244    1406.78906      -3.9748      -8.0406
   1422.39880      -2.5764      -8.2180    1406.77380      -4.0329      -8.0326
   1422.38354      -2.5352      -8.1349    1406.75854      -4.0085      -8.0252
   1422.36828      -2.4848      -8.0411    1406.74328      -4.0169      -8.0582
   1422.35302      -2.4217      -8.0704    1406.72802      -4.0551      -8.0788
   1422.33776      -2.3790      -7.9959    1406.71276      -3.9519      -8.0349
   1422.32250      -2.3273      -7.8919    1406.69750      -3.9942      -8.0870
   1422.30725      -2.2793      -7.8580    1406.68225      -3.9992      -8.0828
   1422.29199      -2.2476      -7.7876    1406.66699      -3.9750      -8.0083
   1422.27673      -2.1970      -7.7618    1406.65173      -3.9991      -7.9914
   1422.26147      -2.2184      -7.7526    1406.63647      -4.0227      -7.9584
   1422.24621      -2.1436      -7.6881    1406.62121      -4.0089      -7.9874
   1422.23095      -2.0713      -7.6546    1406.60595      -4.0459      -8.0173
   1422.21569      -2.0374      -7.5415    1406.59069      -3.9835      -8.0158
   1422.20043      -2.0231      -7.4436    1406.57543      -4.0291      -7.9960
   1422.18518      -1.9449      -7.4226    1406.56018      -4.0401      -7.9983
   1422.16992      -1.8981      -7.3565    1406.54492      -3.9678      -8.0089
   1422.15466      -1.8205      -7.2390    1406.52966      -4.0124      -8.0482
   1422.13940      -1.7667      -7.1971    1406.51440      -4.0322      -8.0204
   1422.12414      -1.7328      -7.1751    1406.49914      -4.0129      -7.9687
   1422.10888      -1.6979      -7.1158    1406.48388      -3.9669      -8.0177
   1422.09362      -1.6724      -7.0885    1406.46862      -4.0031      -8.0769
   1422.07836      -1.6701      -7.0660    1406.45336      -4.0659      -8.0421
   1422.06311      -1.5663      -6.9623    1406.43811      -4.0662      -8.0799
   1422.04785      -1.4628      -6.8412    1406.42285      -3.9901      -8.0480
   1422.03259      -1.4047      -6.7251    1406.40759      -4.0252      -8.0005
   1422.01733      -1.2950      -6.5559    1406.39233      -4.0115      -8.0169
   1422.00207      -1.2937      -6.6018    1406.37707      -4.0171      -8.0037
   1421.98681      -1.1938      -6.4830    1406.36181      -3.9835      -8.0476
   1421.97155      -1.1482      -6.4130    1406.34655      -4.0291      -8.0509
   1421.95629      -1.0824      -6.2841    1406.33129      -3.9945      -8.0459
   1421.94104      -1.0200      -6.2058    1406.31604      -4.0090      -8.0496
   1421.92578      -1.0234      -6.1642    1406.30078      -4.0321      -8.0070
   1421.91052      -0.9810      -6.0688    1406.28552      -4.0034      -8.0774
   1421.89526      -0.9350      -6.0139    1406.27026      -3.9101      -7.9801
   1421.88000      -0.9352      -6.0630    1406.25500      -3.9259      -8.0261
   1421.86474      -0.9418      -6.1120    1406.23974      -3.9149      -8.0072
   1421.84948      -0.9605      -6.1376    1406.22448      -3.9996      -8.0700
   1421.83422      -0.9718      -6.1909    1406.20922      -3.9996      -8.1242
   1421.81896      -1.0031      -6.2084    1406.19396      -4.0312      -8.1350
   1421.80371      -1.0144      -6.2944    1406.17871      -4.0163      -8.0981
   1421.78845      -1.0629      -6.3104    1406.16345      -4.0146      -8.0077
   1421.77319      -1.0755      -6.3355    1406.14819      -4.0147      -8.0575
   1421.75793      -1.0774      -6.3098    1406.13293      -3.9998      -8.0969
   1421.74267      -1.0938      -6.4589    1406.11767      -4.0150      -8.1197
   1421.72741      -1.1202      -6.4308    1406.10241      -4.0447      -8.0674
   1421.71215      -1.0942      -6.3632    1406.08715      -4.0313      -8.0853
   1421.69689      -1.0481      -6.3846    1406.07189      -3.9950      -8.1792
   1421.68164      -1.0580      -6.3643    1406.05664      -4.0107      -8.1802
   1421.66638      -1.0889      -6.4363    1406.04138      -4.0077      -8.0875
   1421.65112      -1.0940      -6.5119    1406.02612      -4.0221      -8.0983
   1421.63586      -1.2129      -6.6960    1406.01086      -4.0312      -8.1282
   1421.62060      -1.3583      -6.8161    1405.99560      -4.0045      -8.1153
   1421.60534      -1.3847      -6.8893    1405.98034      -4.0111      -8.1689
   1421.59008      -1.4153      -6.9444    1405.96508      -4.0199      -8.1069
   1421.57482      -1.4818      -7.1428    1405.94982      -4.0355      -8.1348
   1421.55957      -1.6550      -7.3492    1405.93457      -3.9738      -8.1683
   1421.54431      -1.6965      -7.4633    1405.91931      -4.0259      -8.1467
   1421.52905      -1.7730      -7.5169    1405.90405      -4.0091      -8.1865
   1421.51379      -1.8265      -7.5678    1405.88879      -4.0239      -8.1917
   1421.49853      -1.8738      -7.6626    1405.87353      -4.0100      -8.1648
   1421.48327      -1.9475      -7.8561    1405.85827      -4.0041      -8.1539
   1421.46801      -2.0175      -7.9657    1405.84301      -4.0383      -8.2016
   1421.45275      -2.1133      -8.0759    1405.82775      -4.0065      -8.1617
   1421.43750      -2.1518      -8.1674    1405.81250      -4.0096      -8.2029
   1421.42224      -2.2418      -8.2812    1405.79724      -4.0116      -8.1822
   1421.40698      -2.2682      -8.3154    1405.78198      -4.0125      -8.2244
   1421.39172      -2.2855      -8.4567    1405.76672      -4.0046      -8.2105
   1421.37646      -2.3437      -8.4783    1405.75146      -3.9690      -8.2120
   1421.36120      -2.4083      -8.5654    1405.73620      -4.0228      -8.2409
   1421.34594      -2.4428      -8.5228    1405.72094      -4.0196      -8.2473
   1421.33068      -2.4953      -8.7176    1405.70568      -4.0216      -8.2457
   1421.31542      -2.5224      -8.6860    1405.69042      -4.0698      -8.1892
   1421.30017      -2.5660      -8.8328    1405.67517      -4.0283      -8.2632
   1421.28491      -2.6493      -8.8982    1405.65991      -4.0206      -8.2648
   1421.26965      -2.6874      -8.9797    1405.64465      -4.0198      -8.2387
   1421.25439      -2.7164      -8.9769    1405.62939      -4.0345      -8.3045
   1421.23913      -2.7473      -9.0701    1405.61413      -4.0379      -8.2860
   1421.22387      -2.7843      -9.0987    1405.59887      -3.9923      -8.3053
   1421.20861      -2.8405      -9.2318    1405.58361      -4.0006      -8.3413
   1421.19335      -2.8315      -9.2634    1405.56835      -4.0109      -8.2805
   1421.17810      -2.9029      -9.2778    1405.55310      -3.9917      -8.2931
   1421.16284      -2.9224      -9.2527    1405.53784      -3.9992      -8.3442
   1421.14758      -2.9015      -9.3903    1405.52258      -4.0079      -8.3113
   1421.13232      -2.9595      -9.3574    1405.50732      -4.0143      -8.3327
   1421.11706      -2.9426      -9.3978    1405.49206      -3.9934      -8.3347
   1421.10180      -2.9915      -9.4488    1405.47680      -4.0273      -8.3323
   1421.08654      -2.9827      -9.5305    1405.46154      -4.0384      -8.3628
   1421.07128      -2.9985      -9.5028    1405.44628      -4.0176      -8.3911
   1421.05603      -3.0188      -9.5366    1405.43103      -4.0212      -8.3392
   1421.04077      -3.0263      -9.5213    1405.41577      -4.0112      -8.3152
   1421.02551      -3.0781      -9.5951    1405.40051      -4.0063      -8.3498
   1421.01025      -3.0697      -9.5699    1405.38525      -4.0229      -8.3676
   1420.99499      -3.0622      -9.5122    1405.36999      -4.0362      -8.3949
   1420.97973      -3.0676      -9.5073    1405.35473      -4.0056      -8.3652
   1420.96447      -3.0572      -9.5759    1405.33947      -3.9940      -8.4206
   1420.94921      -3.0385      -9.5687    1405.32421      -3.9882      -8.4852
   1420.93396      -3.0713      -9.5479    1405.30896      -3.9949      -8.3734
   1420.91870      -3.0438      -9.5413    1405.29370      -4.0263      -8.4528
   1420.90344      -3.0176      -9.5038    1405.27844      -3.9901      -8.4648
   1420.88818      -3.0180      -9.5343    1405.26318      -3.9694      -8.4008
   1420.87292      -2.9892      -9.4869    1405.24792      -3.9746      -8.4896
   1420.85766      -3.0310      -9.5202    1405.23266      -3.9982      -8.4228
   1420.84240      -3.0314      -9.5030    1405.21740      -3.9820      -8.4578
   1420.82714      -3.0040      -9.5454    1405.20214      -3.9983      -8.4528
   1420.81188      -3.0887      -9.5772    1405.18688      -3.9831      -8.4758
   1420.79663      -3.0773      -9.6386    1405.17163      -3.9905      -8.4576
   1420.78137      -3.0624      -9.7012    1405.15637      -3.9649      -8.5063
   1420.76611      -3.0716      -9.7142    1405.14111      -4.0042      -8.4840
   1420.75085      -3.0530      -9.6292    1405.12585      -4.0358      -8.5140
   1420.73559      -3.0624      -9.5901    1405.11059      -4.0067      -8.5177
   1420.72033      -3.1225      -9.6413    1405.09533      -4.0144      -8.5095
   1420.70507      -3.3435      -9.8852    1405.08007      -3.9923      -8.5487
   1420.68981      -3.5782     -10.1030    1405.06481      -4.0034      -8.5408
   1420.67456      -3.4926      -9.9925    1405.04956      -3.9757      -8.6002
   1420.65930      -3.3110      -9.7122    1405.03430      -3.9814      -8.5366
   1420.64404      -3.0020      -9.3049    1405.01904      -3.9751      -8.5624
   1420.62878      -2.7564      -8.8334    1405.00378      -3.9904      -8.5827
   1420.61352      -2.2777      -8.1868    1404.98852      -4.0278      -8.6323
   1420.59826      -1.6621      -7.2925    1404.97326      -3.9920      -8.6038
   1420.58300      -1.7157      -7.3853    1404.95800      -4.0164      -8.6038
   1420.56774      -1.9584      -7.8501    1404.94274      -3.9732      -8.6661
   1420.55249      -2.0390      -7.9462    1404.92749      -3.9489      -8.6139
   1420.53723      -2.1240      -8.1167    1404.91223      -4.0346      -8.6250
   1420.52197      -1.9313      -7.7291    1404.89697      -4.0097      -8.6518
   1420.50671      -2.4328      -8.3338    1404.88171      -4.0124      -8.6320
   1420.49145      -2.8303      -8.9540    1404.86645      -4.0175      -8.6760
   1420.47619      -2.9443      -9.0779    1404.85119      -3.9838      -8.6653
   1420.46093      -2.8616      -8.8938    1404.83593      -3.9618      -8.7383
   1420.44567      -2.2437      -8.0617    1404.82067      -3.9819      -8.6865
   1420.43042      -1.3424      -6.7061    1404.80542      -4.0050      -8.6911
   1420.41516      -0.2840      -4.8705    1404.79016      -4.0439      -8.7091
   1420.39990       1.0731      -2.9524    1404.77490      -3.9924      -8.7674
   1420.38464      -2.6235      -8.2978    1404.75964      -3.9763      -8.7662
   1420.36938      -4.7614     -11.3598    1404.74438      -3.9531      -8.6801
   1420.35412      -4.5121     -11.1500    1404.72912      -4.0134      -8.7632
   1420.33886      -3.8945     -10.6287    1404.71386      -4.0282      -8.7676
   1420.32360      -3.6678     -10.3677    1404.69860      -3.9815      -8.7834
   1420.30834      -3.5996     -10.3183    1404.68334      -3.9542      -8.7733
   1420.29309      -3.5265     -10.2642    1404.66809      -3.9429      -8.7601
   1420.27783      -3.4727     -10.1473    1404.65283      -3.9641      -8.8680
   1420.26257      -3.4352     -10.1822    1404.63757      -3.9710      -8.8232
   1420.24731      -3.4333     -10.1965    1404.62231      -4.0065      -8.7696
   1420.23205      -3.3942     -10.1836    1404.60705      -3.9704      -8.7683
   1420.21679      -3.3428     -10.1135    1404.59179      -3.9657      -8.8440
   1420.20153      -3.3528     -10.1045    1404.57653      -4.0049      -8.8250
   1420.18627      -3.3734     -10.0845    1404.56127      -3.9812      -8.8722
   1420.17102      -3.3988     -10.1767    1404.54602      -3.9938      -8.8623
   1420.15576      -3.4165     -10.2069    1404.53076      -4.0010      -8.8878
   1420.14050      -3.4363     -10.1762    1404.51550      -3.9886      -8.8590
   1420.12524      -3.4246     -10.1568    1404.50024      -3.9854      -8.9013
   1420.10998      -3.4396     -10.2450    1404.48498      -3.9603      -8.8942
   1420.09472      -3.4539     -10.2092    1404.46972      -3.9764      -8.8965
   1420.07946      -3.4634     -10.2231    1404.45446      -3.9608      -8.9165
   1420.06420      -3.4424     -10.2132    1404.43920      -3.9907      -8.8950
   1420.04895      -3.4711     -10.2004    1404.42395      -4.0344      -8.9219
   1420.03369      -3.4540     -10.2353    1404.40869      -3.9802      -8.9185
   1420.01843      -3.4686     -10.2153    1404.39343      -3.9514      -8.9344
   1420.00317      -3.4480     -10.1517    1404.37817      -3.9552      -8.8971
   1419.98791      -3.4364     -10.1955    1404.36291      -3.9255      -8.9673
   1419.97265      -3.4520     -10.2123    1404.34765      -3.9502      -8.8964
   1419.95739      -3.4111     -10.2212    1404.33239      -3.9395      -9.0107
   1419.94213      -3.4057     -10.2408    1404.31713      -3.9587      -8.9815
   1419.92687      -3.4379     -10.2097    1404.30187      -3.9348      -8.9699
   1419.91162      -3.4324     -10.2451    1404.28662      -3.9795      -9.0404
   1419.89636      -3.4349     -10.2601    1404.27136      -3.9988      -9.0055
   1419.88110      -3.4235     -10.2631    1404.25610      -3.9771      -8.9902
   1419.86584      -3.4457     -10.1926    1404.24084      -3.9776      -9.0389
   1419.85058      -3.4635     -10.1799    1404.22558      -3.9129      -9.0510
   1419.83532      -3.4293     -10.1908    1404.21032      -3.9359      -9.0317
   1419.82006      -3.4464     -10.2017    1404.19506      -3.9604      -9.0449
   1419.80480      -3.4681     -10.2546    1404.17980      -3.9192      -9.0698
   1419.78955      -3.4368     -10.1850    1404.16455      -3.9793      -9.0642
   1419.77429      -3.4317     -10.2066    1404.14929      -3.9234      -9.0731
   1419.75903      -3.4690     -10.2316    1404.13403      -3.9456      -9.0800
   1419.74377      -3.4260     -10.2250    1404.11877      -3.9664      -9.0995
   1419.72851      -3.4195     -10.1859    1404.10351      -3.9566      -9.0980
   1419.71325      -3.4538     -10.2290    1404.08825      -3.9626      -9.0967
   1419.69799      -3.4910     -10.1741    1404.07299      -3.9352      -9.0676
   1419.68273      -3.4566     -10.2233    1404.05773      -3.9243      -9.1304
   1419.66748      -3.4697     -10.1658    1404.04248      -3.9569      -9.0944
   1419.65222      -3.4492     -10.2184    1404.02722      -3.9756      -9.1476
   1419.63696      -3.4405     -10.2198    1404.01196      -3.9268      -9.0865
   1419.62170      -3.4256     -10.2002    1403.99670      -3.9398      -9.1285
   1419.60644      -3.4543     -10.2287    1403.98144      -3.9362      -9.1379
   1419.59118      -3.4493     -10.2406    1403.96618      -3.9723      -9.1117
   1419.57592      -3.4385     -10.1835    1403.95092      -3.9454      -9.1639
   1419.56066      -3.4548     -10.1578    1403.93566      -3.9892      -9.2006
   1419.54541      -3.4334     -10.1710    1403.92041      -3.9722      -9.2065
   1419.53015      -3.4297     -10.1276    1403.90515      -3.9352      -9.2303
   1419.51489      -3.4300     -10.2004    1403.88989      -3.9398      -9.1806
   1419.49963      -3.4245     -10.1431    1403.87463      -3.9356      -9.1607
   1419.48437      -3.4473     -10.1294    1403.85937      -3.9442      -9.1536
   1419.46911      -3.4449     -10.1782    1403.84411      -3.9123      -9.1761
   1419.45385      -3.4304     -10.1582    1403.82885      -3.9129      -9.1919
   1419.43859      -3.4229     -10.2215    1403.81359      -3.9706      -9.2344
   1419.42333      -3.4479     -10.1915    1403.79833      -3.9287      -9.2310
   1419.40808      -3.4384     -10.1494    1403.78308      -3.9468      -9.2375
   1419.39282      -3.4381     -10.1442    1403.76782      -3.9639      -9.2806
   1419.37756      -3.4241     -10.1692    1403.75256      -3.9333      -9.2529
   1419.36230      -3.4249     -10.1260    1403.73730      -3.9568      -9.2207
   1419.34704      -3.4290     -10.2266    1403.72204      -3.9689      -9.2681
   1419.33178      -3.4337     -10.1564    1403.70678      -3.9438      -9.2523
   1419.31652      -3.4492     -10.1168    1403.69152      -3.9433      -9.1937
   1419.30126      -3.4502     -10.1258    1403.67626      -3.9659      -9.2534
   1419.28601      -3.4341     -10.1510    1403.66101      -3.9307      -9.3194
   1419.27075      -3.4117     -10.1281    1403.64575      -4.0126      -9.2871
   1419.25549      -3.3929     -10.1171    1403.63049      -3.9559      -9.2647
   1419.24023      -3.4305     -10.0918    1403.61523      -3.9603      -9.2931
   1419.22497      -3.4033     -10.1468    1403.59997      -3.9329      -9.2752
   1419.20971      -3.3978     -10.0980    1403.58471      -3.9817      -9.2754
   1419.19445      -3.4244     -10.0974    1403.56945      -3.9252      -9.2767
   1419.17919      -3.4078     -10.0788    1403.55419      -3.9459      -9.3633
   1419.16394      -3.3991     -10.0789    1403.53894      -3.9280      -9.2415
   1419.14868      -3.4048     -10.0975    1403.52368      -3.9288      -9.2743
   1419.13342      -3.4228     -10.0894    1403.50842      -3.9671      -9.2703
   1419.11816      -3.4248     -10.0868    1403.49316      -3.9288      -9.3155
   1419.10290      -3.3909     -10.0739    1403.47790      -3.9578      -9.3578
   1419.08764      -3.4118     -10.0643    1403.46264      -3.8837      -9.3281
   1419.07238      -3.4071     -10.0104    1403.44738      -3.9658      -9.3126
   1419.05712      -3.4332     -10.0637    1403.43212      -3.9437      -9.2856
   1419.04187      -3.3871     -10.0899    1403.41687      -3.9522      -9.3329
   1419.02661      -3.4349      -9.9979    1403.40161      -3.9345      -9.3352
   1419.01135      -3.3875     -10.0343    1403.38635      -3.9184      -9.2949
   1418.99609      -3.4219     -10.0412    1403.37109      -3.9377      -9.3383
   1418.98083      -3.4226      -9.9960    1403.35583      -3.9596      -9.3200
   1418.96557      -3.4142     -10.0459    1403.34057      -3.9514      -9.3781
   1418.95031      -3.4012     -10.0059    1403.32531      -3.9038      -9.3471
   1418.93505      -3.4020     -10.0116    1403.31005      -3.9534      -9.3196
   1418.91979      -3.3911     -10.0477    1403.29479      -3.9329      -9.3572
   1418.90454      -3.3960     -10.0430    1403.27954      -4.0055      -9.3833
   1418.88928      -3.3888     -10.0009    1403.26428      -3.9783      -9.4205
   1418.87402      -3.4250     -10.0119    1403.24902      -3.9691      -9.4016
   1418.85876      -3.3892      -9.9715    1403.23376      -3.9096      -9.3568
   1418.84350      -3.3652      -9.9549    1403.21850      -3.9215      -9.4212
   1418.82824      -3.3970      -9.9957    1403.20324      -3.9410      -9.3548
   1418.81298      -3.4054      -9.9586    1403.18798      -3.9422      -9.4054
   1418.79772      -3.4073      -9.9385    1403.17272      -3.9909      -9.4332
   1418.78247      -3.4050      -9.9296    1403.15747      -3.9744      -9.3968
   1418.76721      -3.4058      -9.9286    1403.14221      -3.9305      -9.3617
   1418.75195      -3.4102      -9.9135    1403.12695      -3.9492      -9.4140
   1418.73669      -3.4211      -9.9515    1403.11169      -3.9670      -9.4019
   1418.72143      -3.3732      -9.9346    1403.09643      -3.9281      -9.3893
   1418.70617      -3.3765      -9.9647    1403.08117      -4.0011      -9.3984
   1418.69091      -3.3801      -9.9731    1403.06591      -3.9951      -9.4057
   1418.67565      -3.4269      -9.9402    1403.05065      -3.9783      -9.4015
   1418.66040      -3.3958      -9.9579    1403.03540      -3.9583      -9.4345
   1418.64514      -3.3666      -9.9390    1403.02014      -3.9577      -9.3634
   1418.62988      -3.3468      -9.8954    1403.00488      -3.9419      -9.3892
   1418.61462      -3.3840      -9.8960    1402.98962      -3.9717      -9.3794
   1418.59936      -3.3398      -9.8741    1402.97436      -3.9628      -9.3384
   1418.58410      -3.3852      -9.8900    1402.95910      -3.9193      -9.4079
   1418.56884      -3.3511      -9.8401    1402.94384      -3.9698      -9.3901
   1418.55358      -3.3580      -9.8946    1402.92858      -3.9963      -9.4699
   1418.53833      -3.3557      -9.7943    1402.91333      -3.9898      -9.3734
   1418.52307      -3.3819      -9.8684    1402.89807      -3.9600      -9.4063
   1418.50781      -3.3865      -9.8994    1402.88281      -3.9897      -9.4171
   1418.49255      -3.3564      -9.8918    1402.86755      -4.0157      -9.4325
   1418.47729      -3.3419      -9.8313    1402.85229      -4.0228      -9.3792
   1418.46203      -3.3429      -9.8499    1402.83703      -3.9306      -9.4031
   1418.44677      -3.3740      -9.8240    1402.82177      -3.9371      -9.4102
   1418.43151      -3.3662      -9.7995    1402.80651      -3.9777      -9.4033
   1418.41625      -3.3685      -9.8195    1402.79125      -3.9479      -9.4332
   1418.40100      -3.3442      -9.8212    1402.77600      -4.0364      -9.3976
   1418.38574      -3.3344      -9.7862    1402.76074      -3.9434      -9.4175
   1418.37048      -3.3488      -9.7842    1402.74548      -3.9393      -9.4380
   1418.35522      -3.3401      -9.7980    1402.73022      -3.9709      -9.3652
   1418.33996      -3.3968      -9.8273    1402.71496      -4.0091      -9.4247
   1418.32470      -3.3404      -9.8435    1402.69970      -3.9923      -9.4061
   1418.30944      -3.3370      -9.8096    1402.68444      -4.0216      -9.4117
   1418.29418      -3.3282      -9.7955    1402.66918      -3.9904      -9.3822
   1418.27893      -3.3511      -9.8323    1402.65393      -4.0292      -9.3676
   1418.26367      -3.3524      -9.7368    1402.63867      -3.9881      -9.3910
   1418.24841      -3.3251      -9.8001    1402.62341      -4.0054      -9.4017
   1418.23315      -3.3565      -9.7544    1402.60815      -4.0464      -9.3794
   1418.21789      -3.3717      -9.7384    1402.59289      -4.0418      -9.3697
   1418.20263      -3.3472      -9.7655    1402.57763      -3.9740      -9.4178
   1418.18737      -3.3576      -9.7579    1402.56237      -4.0296      -9.3340
   1418.17211      -3.3378      -9.7279    1402.54711      -3.9837      -9.4009
   1418.15686      -3.3472      -9.7271    1402.53186      -3.9947      -9.3432
   1418.14160      -3.3530      -9.7109    1402.51660      -3.9854      -9.3007
   1418.12634      -3.3404      -9.6916    1402.50134      -4.0591      -9.3785
   1418.11108      -3.3145      -9.7005    1402.48608      -3.9837      -9.4074
   1418.09582      -3.3198      -9.7025    1402.47082      -4.0840      -9.4162
   1418.08056      -3.3606      -9.7433    1402.45556      -4.0204      -9.3739
   1418.06530      -3.3331      -9.6733    1402.44030      -4.0139      -9.3751
   1418.05004      -3.3405      -9.6376    1402.42504      -4.0515      -9.3726
   1418.03479      -3.3367      -9.6477    1402.40979      -3.9955      -9.3899
   1418.01953      -3.3498      -9.6770    1402.39453      -4.0133      -9.3893
   1418.00427      -3.3639      -9.7017    1402.37927      -4.0108      -9.3649
   1417.98901      -3.3626      -9.7574    1402.36401      -4.0692      -9.3619
   1417.97375      -3.3445      -9.6671    1402.34875      -4.0208      -9.3475
   1417.95849      -3.3191      -9.6847    1402.33349      -4.1025      -9.3661
   1417.94323      -3.3118      -9.7398    1402.31823      -4.0224      -9.3201
   1417.92797      -3.3004      -9.7504    1402.30297      -4.0769      -9.3592
   1417.91271      -3.3410      -9.6826    1402.28771      -3.9921      -9.3404
   1417.89746      -3.2906      -9.6661    1402.27246      -4.0488      -9.3605
   1417.88220      -3.2965      -9.6819    1402.25720      -4.0486      -9.3372
   1417.86694      -3.3066      -9.6493    1402.24194      -3.9930      -9.3504
   1417.85168      -3.3000      -9.6611    1402.22668      -4.1121      -9.3183
   1417.83642      -3.2828      -9.6585    1402.21142      -4.0218      -9.3126
   1417.82116      -3.2958      -9.6979    1402.19616      -4.0796      -9.2985
   1417.80590      -3.3099      -9.6518    1402.18090      -4.0590      -9.3130
   1417.79064      -3.2735      -9.6253    1402.16564      -4.0983      -9.3220
   1417.77539      -3.2920      -9.6654    1402.15039      -4.0353      -9.2983
   1417.76013      -3.2936      -9.6013    1402.13513      -4.0819      -9.3417
   1417.74487      -3.2549      -9.6370    1402.11987      -4.0846      -9.3348
   1417.72961      -3.2945      -9.6140    1402.10461      -4.0823      -9.2585
   1417.71435      -3.2743      -9.6470    1402.08935      -4.0802      -9.3296
   1417.69909      -3.2951      -9.6470    1402.07409      -4.0585      -9.2869
   1417.68383      -3.2507      -9.6402    1402.05883      -4.0807      -9.2635
   1417.66857      -3.2567      -9.6388    1402.04357      -4.0419      -9.2961
   1417.65332      -3.2827      -9.6825    1402.02832      -4.0288      -9.3060
   1417.63806      -3.2818      -9.6574    1402.01306      -4.1095      -9.2813
   1417.62280      -3.2752      -9.6697    1401.99780      -4.0466      -9.3246
   1417.60754      -3.2918      -9.6550    1401.98254      -4.1062      -9.3397
   1417.59228      -3.2851      -9.5826    1401.96728      -4.0722      -9.2589
   1417.57702      -3.2516      -9.6939    1401.95202      -4.0773      -9.2962
   1417.56176      -3.2876      -9.6977    1401.93676      -4.1022      -9.2658
   1417.54650      -3.2719      -9.6358    1401.92150      -4.1181      -9.2652
   1417.53125      -3.2945      -9.6765    1401.90625      -4.0878      -9.2848
   1417.51599      -3.3059      -9.6212    1401.89099      -4.1233      -9.2542
   1417.50073      -3.2697      -9.6304    1401.87573      -4.1245      -9.2585
   1417.48547      -3.2787      -9.6471    1401.86047      -4.0924      -9.2405
   1417.47021      -3.2801      -9.6689    1401.84521      -4.1636      -9.2644
   1417.45495      -3.2751      -9.7660    1401.82995      -4.1193      -9.3058
   1417.43969      -3.2792      -9.6903    1401.81469      -4.1751      -9.2861
   1417.42443      -3.2692      -9.6323    1401.79943      -4.1201      -9.2890
   1417.40917      -3.2706      -9.6685    1401.78417      -4.1057      -9.2882
   1417.39392      -3.2700      -9.6744    1401.76892      -4.1089      -9.2446
   1417.37866      -3.2777      -9.7144    1401.75366      -4.0509      -9.2649
   1417.36340      -3.2486      -9.6695    1401.73840      -4.1587      -9.2514
   1417.34814      -3.2366      -9.7167    1401.72314      -4.1448      -9.2168
   1417.33288      -3.2424      -9.6976    1401.70788      -4.0968      -9.2023
   1417.31762      -3.2657      -9.6570    1401.69262      -4.1499      -9.2245
   1417.30236      -3.2608      -9.7098    1401.67736      -4.1366      -9.2050
   1417.28710      -3.2704      -9.6638    1401.66210      -4.1172      -9.1795
   1417.27185      -3.2419      -9.7651    1401.64685      -4.1227      -9.2506
   1417.25659      -3.2259      -9.7188    1401.63159      -4.1477      -9.2599
   1417.24133      -3.2707      -9.7334    1401.61633      -4.1404      -9.2345
   1417.22607      -3.2341      -9.7811    1401.60107      -4.1184      -9.2460
   1417.21081      -3.2098      -9.7059    1401.58581      -4.1193      -9.1945
   1417.19555      -3.2359      -9.7134    1401.57055      -4.1062      -9.2065
   1417.18029      -3.2128      -9.7691    1401.55529      -4.1094      -9.1988
   1417.16503      -3.2111      -9.7229    1401.54003      -4.1776      -9.2096
   1417.14978      -3.2356      -9.7983    1401.52478      -4.1572      -9.1900
   1417.13452      -3.2558      -9.7556    1401.50952      -4.1434      -9.2259
   1417.11926      -3.2258      -9.7818    1401.49426      -4.1820      -9.2269
   1417.10400      -3.2545      -9.7759    1401.47900      -4.0954      -9.1803
   1417.08874      -3.2471      -9.7346    1401.46374      -4.1415      -9.2455
   1417.07348      -3.2025      -9.7937    1401.44848      -4.1323      -9.1968
   1417.05822      -3.1988      -9.7788    1401.43322      -4.1496      -9.2120
   1417.04296      -3.2337      -9.7869    1401.41796      -4.1493      -9.1776
   1417.02771      -3.2609      -9.8532    1401.40271      -4.1358      -9.2123
   1417.01245      -3.2322      -9.8189    1401.38745      -4.1542      -9.1150
   1416.99719      -3.2277      -9.8739    1401.37219      -4.1557      -9.2237
   1416.98193      -3.2439      -9.8205    1401.35693      -4.1596      -9.2129
   1416.96667      -3.2024      -9.8387    1401.34167      -4.1838      -9.1426
   1416.95141      -3.2257      -9.8085    1401.32641      -4.1650      -9.1463
   1416.93615      -3.2343      -9.8594    1401.31115      -4.1571      -9.1926
   1416.92089      -3.2284      -9.8738    1401.29589      -4.1638      -9.1732
   1416.90563      -3.2396      -9.8956    1401.28063      -4.1643      -9.2071
   1416.89038      -3.2248      -9.8863    1401.26538      -4.1758      -9.1805
   1416.87512      -3.2051      -9.9411    1401.25012      -4.1668      -9.2145
   1416.85986      -3.2470      -9.9109    1401.23486      -4.1617      -9.1740
   1416.84460      -3.2574      -9.8928    1401.21960      -4.1500      -9.1865
   1416.82934      -3.2099      -9.9484    1401.20434      -4.2119      -9.1708
   1416.81408      -3.2417      -9.9833    1401.18908      -4.1657      -9.2259
   1416.79882      -3.2357      -9.8671    1401.17382      -4.1826      -9.1713
   1416.78356      -3.1906      -9.8895    1401.15856      -4.1714      -9.2038
   1416.76831      -3.2194      -9.9614    1401.14331      -4.1692      -9.1529
   1416.75305      -3.2439      -9.9919    1401.12805      -4.2087      -9.1575
   1416.73779      -3.2174      -9.9798    1401.11279      -4.1753      -9.1239
   1416.72253      -3.1910      -9.9978    1401.09753      -4.1691      -9.1141
   1416.70727      -3.2061     -10.0178    1401.08227      -4.1991      -9.1151
   1416.69201      -3.2211     -10.0345    1401.06701      -4.1817      -9.1877
   1416.67675      -3.2074      -9.9823    1401.05175      -4.1971      -9.1987
   1416.66149      -3.1963     -10.0616    1401.03649      -4.1816      -9.1420
   1416.64624      -3.1903      -9.9673    1401.02124      -4.2050      -9.1623
   1416.63098      -3.2209     -10.0813    1401.00598      -4.2176      -9.1888
   1416.61572      -3.1980     -10.0527    1400.99072      -4.1744      -9.1970
   1416.60046      -3.2015     -10.0600    1400.97546      -4.1806      -9.1573
   1416.58520      -3.1648     -10.1072    1400.96020      -4.2024      -9.1536
   1416.56994      -3.1870     -10.0911    1400.94494      -4.2202      -9.1335
   1416.55468      -3.1497     -10.1449    1400.92968      -4.1854      -9.1662
   1416.53942      -3.1892     -10.1299    1400.91442      -4.2126      -9.1742
   1416.52417      -3.2184     -10.1666    1400.89917      -4.1893      -9.1772
   1416.50891      -3.2294     -10.1467    1400.88391      -4.2337      -9.1371
   1416.49365      -3.1822     -10.1522    1400.86865      -4.2595      -9.2230
   1416.47839      -3.1937     -10.2184    1400.85339      -4.2139      -9.1760
   1416.46313      -3.1109     -10.1960    1400.83813      -4.1446      -9.1084
   1416.44787      -3.1676     -10.2248    1400.82287      -4.2212      -9.1347
   1416.43261      -3.1643     -10.2665    1400.80761      -4.2324      -9.1101
   1416.41735      -3.1789     -10.2471    1400.79235      -4.2100      -9.1366
   1416.40209      -3.1259     -10.2687    1400.77709      -4.2286      -9.1691
   1416.38684      -3.2288     -10.2841    1400.76184      -4.2058      -9.1583
   1416.37158      -3.1617     -10.2416    1400.74658      -4.1535      -9.1363
   1416.35632      -3.1546     -10.3342    1400.73132      -4.1649      -9.1234
   1416.34106      -3.1796     -10.3018    1400.71606      -4.2428      -9.1985
   1416.32580      -3.1413     -10.3841    1400.70080      -4.2414      -9.1446
   1416.31054      -3.1438     -10.3330    1400.68554      -4.2625      -9.1048
   1416.29528      -3.1487     -10.3448    1400.67028      -4.1764      -9.1303
   1416.28002      -3.1580     -10.4240    1400.65502      -4.2117      -9.1592
   1416.26477      -3.1847     -10.4261    1400.63977      -4.2424      -9.1552
   1416.24951      -3.1662     -10.4502    1400.62451      -4.2140      -9.1751
   1416.23425      -3.1122     -10.4038    1400.60925      -4.1969      -9.1713
   1416.21899      -3.1511     -10.4464    1400.59399      -4.2434      -9.1398
   1416.20373      -3.1804     -10.4989    1400.57873      -4.2216      -9.1529
   1416.18847      -3.1626     -10.4817    1400.56347      -4.1977      -9.1901
   1416.17321      -3.1689     -10.5266    1400.54821      -4.2483      -9.1246
   1416.15795      -3.1455     -10.5101    1400.53295      -4.1968      -9.1504
   1416.14270      -3.1769     -10.4907    1400.51770      -4.2186      -9.1772
   1416.12744      -3.1255     -10.5332    1400.50244      -4.2199      -9.1791
   1416.11218      -3.1600     -10.5385    1400.48718      -4.2456      -9.1727
   1416.09692      -3.1267     -10.5696    1400.47192      -4.2330      -9.0908
   1416.08166      -3.1387     -10.5662    1400.45666      -4.2372      -9.1908
   1416.06640      -3.1434     -10.6554    1400.44140      -4.2020      -9.1753
   1416.05114      -3.1237     -10.6178    1400.42614      -4.2033      -9.1307
   1416.03588      -3.1790     -10.6229    1400.41088      -4.2146      -9.1411
   1416.02062      -3.1948     -10.6630    1400.39562      -4.1906      -9.1673
   1416.00537      -3.1778     -10.6969    1400.38037      -4.2725      -9.1576
   1415.99011      -3.1371     -10.7413    1400.36511      -4.2567      -9.1173
   1415.97485      -3.1680     -10.6889    1400.34985      -4.2911      -9.1570
   1415.95959      -3.1327     -10.7008    1400.33459      -4.1695      -9.2054
   1415.94433      -3.1813     -10.7705    1400.31933      -4.2193      -9.1473
   1415.92907      -3.1905     -10.7757    1400.30407      -4.2442      -9.1957
   1415.91381      -3.1402     -10.7987    1400.28881      -4.2286      -9.2006
   1415.89855      -3.2027     -10.7316    1400.27355      -4.2571      -9.1167
   1415.88330      -3.1555     -10.8903    1400.25830      -4.2132      -9.1983
   1415.86804      -3.2011     -10.8470    1400.24304      -4.2254      -9.1640
   1415.85278      -3.1500     -10.8377    1400.22778      -4.2132      -9.1523
   1415.83752      -3.1439     -10.8630    1400.21252      -4.2583      -9.1858
   1415.82226      -3.1581     -10.8948    1400.19726      -4.2559      -9.1628
   1415.80700      -3.1418     -10.9140    1400.18200      -4.2257      -9.1554
   1415.79174      -3.1834     -10.9253    1400.16674      -4.1787      -9.1715
   1415.77648      -3.1743     -10.9303    1400.15148      -4.2353      -9.1912
   1415.76123      -3.1556     -10.9686    1400.13623      -4.2199      -9.1598
   1415.74597      -3.1432     -11.0207    1400.12097      -4.2298      -9.1799
   1415.73071      -3.1655     -10.9679    1400.10571      -4.2716      -9.1731
   1415.71545      -3.1997     -11.0289    1400.09045      -4.2182      -9.1078
   1415.70019      -3.1557     -10.9881    1400.07519      -4.1762      -9.1773
   1415.68493      -3.1651     -10.9847    1400.05993      -4.2275      -9.1712
   1415.66967      -3.1973     -11.0437    1400.04467      -4.2494      -9.2234
   1415.65441      -3.1931     -11.0436    1400.02941      -4.2647      -9.1446
   1415.63916      -3.1613     -11.0902    1400.01416      -4.2330      -9.1483
   1415.62390      -3.1566     -11.1188    1399.99890      -4.2179      -9.0953
   1415.60864      -3.2055     -11.1169    1399.98364      -4.2168      -8.9550
   1415.59338      -3.1561     -11.1272    1399.96838      -4.2512      -9.2040
   1415.57812      -3.1377     -11.1743    1399.95312      -4.2276      -9.1577
   1415.56286      -3.1686     -11.1587    1399.93786      -4.2454      -9.1757
   1415.54760      -3.1733     -11.2228    1399.92260      -4.2542      -9.1926
   1415.53234      -3.1872     -11.2380    1399.90734      -4.2229      -9.1854
   1415.51708      -3.1831     -11.1892    1399.89208      -4.1925      -9.1524
   1415.50183      -3.2720     -11.1396    1399.87683      -4.2980      -9.1798
   1415.48657      -3.2141     -11.2204    1399.86157      -4.2234      -9.1853
   1415.47131      -3.2132     -11.2496    1399.84631      -4.2060      -9.1890
   1415.45605      -3.2394     -11.2723    1399.83105      -4.2470      -9.1665
   1415.44079      -3.2211     -11.2851    1399.81579      -4.2456      -9.2432
   1415.42553      -3.2406     -11.2560    1399.80053      -4.2160      -9.2307
   1415.41027      -3.2180     -11.3089    1399.78527      -4.2368      -9.1812
   1415.39501      -3.2262     -11.3028    1399.77001      -4.2236      -9.2619
   1415.37976      -3.1685     -11.3531    1399.75476      -4.2024      -9.1611
   1415.36450      -3.1663     -11.3392    1399.73950      -4.2275      -9.1878
   1415.34924      -3.2546     -11.4059    1399.72424      -4.2589      -9.1396
   1415.33398      -3.1935     -11.3610    1399.70898      -4.2044      -9.2176
   1415.31872      -3.2550     -11.4720    1399.69372      -4.2232      -9.2109
   1415.30346      -3.2267     -11.3813    1399.67846      -4.2225      -9.1974
   1415.28820      -3.2517     -11.3678    1399.66320      -4.1823      -9.2410
   1415.27294      -3.2378     -11.4553    1399.64794      -4.2560      -9.2488
   1415.25769      -3.2496     -11.4815    1399.63269      -4.2239      -9.2090
   1415.24243      -3.2219     -11.4745    1399.61743      -4.2300      -9.2670
   1415.22717      -3.2337     -11.5234    1399.60217      -4.2259      -9.2121
   1415.21191      -3.2361     -11.4555    1399.58691      -4.2280      -9.2384
   1415.19665      -3.1885     -11.4850    1399.57165      -4.2033      -9.1507
   1415.18139      -3.2544     -11.4801    1399.55639      -4.2398      -9.2352
   1415.16613      -3.2604     -11.5419    1399.54113      -4.2553      -9.2539
   1415.15087      -3.2282     -11.5229    1399.52587      -4.2112      -9.2446
   1415.13562      -3.2608     -11.5115    1399.51062      -4.2184      -9.2671
   1415.12036      -3.3048     -11.5216    1399.49536      -4.2238      -9.3007
   1415.10510      -3.2619     -11.5442    1399.48010      -4.1908      -9.2599
   1415.08984      -3.3050     -11.5090    1399.46484      -4.2151      -9.2644
   1415.07458      -3.2810     -11.5450    1399.44958      -4.2363      -9.2395
   1415.05932      -3.2918     -11.5674    1399.43432      -4.1970      -9.2441
   1415.04406      -3.2627     -11.6026    1399.41906      -4.2560      -9.3160
   1415.02880      -3.2970     -11.5580    1399.40380      -4.2639      -9.2678
   1415.01354      -3.2662     -11.5291    1399.38854      -4.1961      -9.3056
   1414.99829      -3.2817     -11.6522    1399.37329      -4.1995      -9.2423
   1414.98303      -3.3236     -11.6730    1399.35803      -4.2655      -9.2832
   1414.96777      -3.3310     -11.5761    1399.34277      -4.2306      -9.2995
   1414.95251      -3.3522     -11.6729    1399.32751      -4.1982      -9.2777
   1414.93725      -3.3199     -11.6236    1399.31225      -4.2249      -9.2607
   1414.92199      -3.3407     -11.6953    1399.29699      -4.1420      -9.2967
   1414.90673      -3.3181     -11.6260    1399.28173      -4.2428      -9.3033
   1414.89147      -3.3323     -11.6587    1399.26647      -4.2090      -9.2548
   1414.87622      -3.3743     -11.6735    1399.25122      -4.2304      -9.2977
