#     FILENAME=Skynet_59002_M31_5kpcRadiusB_45050_54639.A.onoff.cal.txt
#     BASENAME=Skynet_59002_M31_5kpcRadiusB_45050_54639
#      CONTROL=SKYNET
#     PROJCODE=Skynet_59002_M31_5kpcRadiusB_45050
#     DATAROOT=/raid/scratch/cyborg/SkynetData
#      DATADIR=/raid/scratch/cyborg
#     DATADIR2=/raid/scratch/cyborg/SkynetData/Skynet_59002_M31_5kpcRadiusB_45
#     SCANNAME=2018_05_24_20
#     SRC_NAME=M31_5kpcRadiusB
#     OBSERVER=unioncollege_21317
#     DATE_OBS=2020-06-02T08:02:08.380
#        OBSID=45050
#      SCANNUM=54639
#          MJD=59002.3348192
#          UTC=28928
#     SCANTYPE=onoff
#     DATAMODE=HIRES
#     RECEIVER=Rx1_2
#      OBSFREQ=1395.0000
# Actual_FREQ1=1423.0000,
# Actual_FREQ2=1423.0000
#    LO1Tuning=6873.0000
#     RFFILTER=1355_1435
#        OBSBW=-15.6250
#     EFFBANDW=15.6250
#        NCHAN=1024
#    STARTCHAN=51
#     STOPCHAN=972
#         TINT=0.3000
#         TBIN=0.00419430
#       ACCLEN=2048 
#     DURATION=169.50
#     EXPOSURE=125.98
#        FOCUS=37.071
#       RA,DEC=00:41:48.60, 40:58:42.96
#      RA(deg)=9.06752
#     DEC(deg)=40.97856
#   WIDTH(deg)=2.0411x0.0226
#    AZIM(deg)=60.3407
#    ELEV(deg)=32.6331
#     COORDREF=RA_DEC_
#         HREF=10.3830
#         VREF=40.9786
#      RADESYS=FK5
#       OFFSYS=RADEC
#      EQUINOX=2000.00
#     IFATTENS=21.00, 5.00
#   BALANCELEV=1.200 
#   POWER_XLYR=[1.25, 1.04] 
#       VELDEF=RADI-OBS 
#     VELOCITY=0.000 
#         NPOL=2 
#      POLMODE=Linear 
#      POLTYPE=XXYY 
#      WARNING=None 
#     NOISECAL=HI 
#       PRECAL=2 
#      POSTCAL=2 
#     CRYOTEMP=14 
#      BOXTEMP=25 
#         TSYS=XX1:37.34, YY1:37.37
#         TSYS=XX2:37.33, YY2:37.37
#         TCAL=XX1:9.18, YY1:10.14
#         TCAL=XX2:9.18, YY2:10.14
# Calibrated spectra: Tsys*(ON-OFF)/OFF 
#                
#                
#Freq1(MHz)         XX1          YY1   Freq2(MHz)       XX2         YY2 
   1430.03430       0.4012       0.6005    1430.03430       0.4012       0.6005
   1430.01904       0.4885       0.5125    1430.01904       0.4884       0.5125
   1430.00378       0.6150       0.6126    1430.00378       0.6149       0.6127
   1429.98853       0.4592       0.5826    1429.98853       0.4591       0.5827
   1429.97327       0.3460       0.5389    1429.97327       0.3460       0.5389
   1429.95801       0.5318       0.6028    1429.95801       0.5318       0.6029
   1429.94275       0.4255       0.5755    1429.94275       0.4254       0.5756
   1429.92749       0.5503       0.5861    1429.92749       0.5503       0.5861
   1429.91223       0.4480       0.5939    1429.91223       0.4479       0.5940
   1429.89697       0.5540       0.5726    1429.89697       0.5540       0.5727
   1429.88171       0.4762       0.5700    1429.88171       0.4762       0.5700
   1429.86646       0.6136       0.5535    1429.86646       0.6136       0.5535
   1429.85120       0.5170       0.5979    1429.85120       0.5169       0.5979
   1429.83594       0.5576       0.6618    1429.83594       0.5575       0.6618
   1429.82068       0.5276       0.5967    1429.82068       0.5275       0.5967
   1429.80542       0.5655       0.6699    1429.80542       0.5655       0.6699
   1429.79016       0.4998       0.5739    1429.79016       0.4997       0.5739
   1429.77490       0.5033       0.5271    1429.77490       0.5033       0.5271
   1429.75964       0.3974       0.5150    1429.75964       0.3974       0.5150
   1429.74438       0.4605       0.6234    1429.74438       0.4605       0.6235
   1429.72913       0.4976       0.5513    1429.72913       0.4975       0.5513
   1429.71387       0.5365       0.6275    1429.71387       0.5364       0.6276
   1429.69861       0.5428       0.5844    1429.69861       0.5427       0.5844
   1429.68335       0.4754       0.5978    1429.68335       0.4753       0.5978
   1429.66809       0.4283       0.5431    1429.66809       0.4283       0.5431
   1429.65283       0.4296       0.4871    1429.65283       0.4296       0.4872
   1429.63757       0.4655       0.5882    1429.63757       0.4654       0.5882
   1429.62231       0.4848       0.5209    1429.62231       0.4848       0.5210
   1429.60706       0.4838       0.4451    1429.60706       0.4838       0.4452
   1429.59180       0.4924       0.5229    1429.59180       0.4923       0.5229
   1429.57654       0.5426       0.6007    1429.57654       0.5425       0.6008
   1429.56128       0.5131       0.5774    1429.56128       0.5131       0.5774
   1429.54602       0.5087       0.6159    1429.54602       0.5086       0.6160
   1429.53076       0.6577       0.5959    1429.53076       0.6576       0.5959
   1429.51550       0.5138       0.5515    1429.51550       0.5137       0.5516
   1429.50024       0.4998       0.5490    1429.50024       0.4997       0.5490
   1429.48499       0.4624       0.5558    1429.48499       0.4623       0.5559
   1429.46973       0.4988       0.5519    1429.46973       0.4987       0.5520
   1429.45447       0.5426       0.5807    1429.45447       0.5426       0.5808
   1429.43921       0.5443       0.5862    1429.43921       0.5443       0.5862
   1429.42395       0.5396       0.5528    1429.42395       0.5395       0.5529
   1429.40869       0.5606       0.5569    1429.40869       0.5606       0.5569
   1429.39343       0.4814       0.5388    1429.39343       0.4813       0.5389
   1429.37817       0.4854       0.5015    1429.37817       0.4853       0.5016
   1429.36292       0.6016       0.5365    1429.36292       0.6016       0.5365
   1429.34766       0.5552       0.5602    1429.34766       0.5551       0.5603
   1429.33240       0.5543       0.4856    1429.33240       0.5542       0.4856
   1429.31714       0.4921       0.5619    1429.31714       0.4920       0.5620
   1429.30188       0.3930       0.6145    1429.30188       0.3929       0.6146
   1429.28662       0.5747       0.5358    1429.28662       0.5746       0.5358
   1429.27136       0.4510       0.6264    1429.27136       0.4509       0.6265
   1429.25610       0.5609       0.5527    1429.25610       0.5608       0.5527
   1429.24084       0.5213       0.5044    1429.24084       0.5213       0.5045
   1429.22559       0.5513       0.5565    1429.22559       0.5512       0.5565
   1429.21033       0.5078       0.6565    1429.21033       0.5078       0.6565
   1429.19507       0.5392       0.5901    1429.19507       0.5391       0.5901
   1429.17981       0.4501       0.6109    1429.17981       0.4500       0.6109
   1429.16455       0.4973       0.5578    1429.16455       0.4972       0.5578
   1429.14929       0.5388       0.5215    1429.14929       0.5387       0.5215
   1429.13403       0.5326       0.5960    1429.13403       0.5325       0.5960
   1429.11877       0.5258       0.6233    1429.11877       0.5257       0.6233
   1429.10352       0.4715       0.5135    1429.10352       0.4715       0.5135
   1429.08826       0.5099       0.4622    1429.08826       0.5098       0.4623
   1429.07300       0.4873       0.4980    1429.07300       0.4873       0.4980
   1429.05774       0.5770       0.5207    1429.05774       0.5770       0.5207
   1429.04248       0.4983       0.5057    1429.04248       0.4983       0.5058
   1429.02722       0.5763       0.4480    1429.02722       0.5762       0.4480
   1429.01196       0.5447       0.4989    1429.01196       0.5446       0.4989
   1428.99670       0.5640       0.5017    1428.99670       0.5639       0.5017
   1428.98145       0.5370       0.5300    1428.98145       0.5369       0.5300
   1428.96619       0.5666       0.4057    1428.96619       0.5665       0.4057
   1428.95093       0.5706       0.4567    1428.95093       0.5705       0.4567
   1428.93567       0.5051       0.5647    1428.93567       0.5050       0.5647
   1428.92041       0.5669       0.5166    1428.92041       0.5669       0.5166
   1428.90515       0.4904       0.6025    1428.90515       0.4903       0.6026
   1428.88989       0.4863       0.4995    1428.88989       0.4863       0.4996
   1428.87463       0.4966       0.5819    1428.87463       0.4965       0.5819
   1428.85938       0.4973       0.4310    1428.85938       0.4972       0.4310
   1428.84412       0.5170       0.4449    1428.84412       0.5169       0.4450
   1428.82886       0.5639       0.5065    1428.82886       0.5638       0.5065
   1428.81360       0.5365       0.5040    1428.81360       0.5364       0.5040
   1428.79834       0.4949       0.4444    1428.79834       0.4949       0.4444
   1428.78308       0.5255       0.5716    1428.78308       0.5254       0.5716
   1428.76782       0.5445       0.4239    1428.76782       0.5444       0.4239
   1428.75256       0.5002       0.4866    1428.75256       0.5001       0.4866
   1428.73730       0.5649       0.4594    1428.73730       0.5649       0.4595
   1428.72205       0.5034       0.3953    1428.72205       0.5034       0.3953
   1428.70679       0.4207       0.4713    1428.70679       0.4206       0.4713
   1428.69153       0.4370       0.5076    1428.69153       0.4369       0.5077
   1428.67627       0.4852       0.4276    1428.67627       0.4852       0.4277
   1428.66101       0.5246       0.4028    1428.66101       0.5246       0.4028
   1428.64575       0.4578       0.4873    1428.64575       0.4578       0.4873
   1428.63049       0.5535       0.4494    1428.63049       0.5535       0.4494
   1428.61523       0.4976       0.4217    1428.61523       0.4976       0.4218
   1428.59998       0.5902       0.4505    1428.59998       0.5901       0.4505
   1428.58472       0.5400       0.5138    1428.58472       0.5400       0.5138
   1428.56946       0.4642       0.4085    1428.56946       0.4641       0.4085
   1428.55420       0.4794       0.5095    1428.55420       0.4793       0.5095
   1428.53894       0.6328       0.5376    1428.53894       0.6327       0.5377
   1428.52368       0.6290       0.5263    1428.52368       0.6290       0.5264
   1428.50842       0.6136       0.4633    1428.50842       0.6135       0.4633
   1428.49316       0.5156       0.3989    1428.49316       0.5156       0.3990
   1428.47791       0.5307       0.4598    1428.47791       0.5307       0.4598
   1428.46265       0.5064       0.5244    1428.46265       0.5064       0.5245
   1428.44739       0.4550       0.4433    1428.44739       0.4550       0.4434
   1428.43213       0.4496       0.4502    1428.43213       0.4496       0.4502
   1428.41687       0.5018       0.4165    1428.41687       0.5018       0.4166
   1428.40161       0.5468       0.5071    1428.40161       0.5468       0.5071
   1428.38635       0.5917       0.4954    1428.38635       0.5916       0.4954
   1428.37109       0.5660       0.4287    1428.37109       0.5660       0.4287
   1428.35583       0.5641       0.3417    1428.35583       0.5641       0.3418
   1428.34058       0.5427       0.5055    1428.34058       0.5427       0.5055
   1428.32532       0.5471       0.4243    1428.32532       0.5470       0.4244
   1428.31006       0.5546       0.3560    1428.31006       0.5545       0.3560
   1428.29480       0.6126       0.3584    1428.29480       0.6125       0.3584
   1428.27954       0.4126       0.4533    1428.27954       0.4126       0.4534
   1428.26428       0.4808       0.3741    1428.26428       0.4807       0.3741
   1428.24902       0.5525       0.4317    1428.24902       0.5524       0.4318
   1428.23376       0.6207       0.4216    1428.23376       0.6206       0.4217
   1428.21851       0.6478       0.3711    1428.21851       0.6477       0.3711
   1428.20325       0.5835       0.4993    1428.20325       0.5834       0.4994
   1428.18799       0.4225       0.4576    1428.18799       0.4224       0.4576
   1428.17273       0.5631       0.4509    1428.17273       0.5630       0.4510
   1428.15747       0.5096       0.4141    1428.15747       0.5095       0.4141
   1428.14221       0.5458       0.3748    1428.14221       0.5457       0.3748
   1428.12695       0.5452       0.3825    1428.12695       0.5451       0.3825
   1428.11169       0.5389       0.4574    1428.11169       0.5389       0.4575
   1428.09644       0.5304       0.5121    1428.09644       0.5303       0.5121
   1428.08118       0.5747       0.4215    1428.08118       0.5747       0.4215
   1428.06592       0.5182       0.4139    1428.06592       0.5181       0.4139
   1428.05066       0.5494       0.4217    1428.05066       0.5493       0.4217
   1428.03540       0.4848       0.4235    1428.03540       0.4847       0.4235
   1428.02014       0.5362       0.4313    1428.02014       0.5361       0.4314
   1428.00488       0.4938       0.3952    1428.00488       0.4937       0.3953
   1427.98962       0.6224       0.4587    1427.98962       0.6224       0.4587
   1427.97437       0.4934       0.3917    1427.97437       0.4933       0.3917
   1427.95911       0.4875       0.3677    1427.95911       0.4874       0.3677
   1427.94385       0.5332       0.4275    1427.94385       0.5332       0.4276
   1427.92859       0.5831       0.3756    1427.92859       0.5830       0.3756
   1427.91333       0.5350       0.3377    1427.91333       0.5350       0.3377
   1427.89807       0.5447       0.3422    1427.89807       0.5446       0.3422
   1427.88281       0.4986       0.4628    1427.88281       0.4986       0.4628
   1427.86755       0.5002       0.4229    1427.86755       0.5001       0.4229
   1427.85229       0.4777       0.4099    1427.85229       0.4776       0.4099
   1427.83704       0.4318       0.5091    1427.83704       0.4318       0.5091
   1427.82178       0.6189       0.5157    1427.82178       0.6188       0.5157
   1427.80652       0.5572       0.5041    1427.80652       0.5571       0.5042
   1427.79126       0.5332       0.4707    1427.79126       0.5331       0.4708
   1427.77600       0.5749       0.3790    1427.77600       0.5748       0.3791
   1427.76074       0.5692       0.4121    1427.76074       0.5691       0.4121
   1427.74548       0.5150       0.4062    1427.74548       0.5149       0.4063
   1427.73022       0.4849       0.4060    1427.73022       0.4849       0.4060
   1427.71497       0.5940       0.4555    1427.71497       0.5939       0.4556
   1427.69971       0.5148       0.4362    1427.69971       0.5148       0.4362
   1427.68445       0.4884       0.4495    1427.68445       0.4884       0.4496
   1427.66919       0.4957       0.4181    1427.66919       0.4956       0.4181
   1427.65393       0.5187       0.4145    1427.65393       0.5186       0.4145
   1427.63867       0.5016       0.3734    1427.63867       0.5016       0.3734
   1427.62341       0.5585       0.4526    1427.62341       0.5584       0.4526
   1427.60815       0.5358       0.4248    1427.60815       0.5358       0.4248
   1427.59290       0.5639       0.4342    1427.59290       0.5638       0.4342
   1427.57764       0.6025       0.3944    1427.57764       0.6024       0.3944
   1427.56238       0.5593       0.3370    1427.56238       0.5592       0.3371
   1427.54712       0.5317       0.4033    1427.54712       0.5316       0.4033
   1427.53186       0.4564       0.4540    1427.53186       0.4563       0.4540
   1427.51660       0.5951       0.3602    1427.51660       0.5950       0.3603
   1427.50134       0.4858       0.4943    1427.50134       0.4858       0.4943
   1427.48608       0.5755       0.4349    1427.48608       0.5754       0.4349
   1427.47083       0.6055       0.5171    1427.47083       0.6055       0.5171
   1427.45557       0.4977       0.4339    1427.45557       0.4977       0.4339
   1427.44031       0.4824       0.4660    1427.44031       0.4823       0.4661
   1427.42505       0.5079       0.4519    1427.42505       0.5078       0.4519
   1427.40979       0.5394       0.4532    1427.40979       0.5393       0.4532
   1427.39453       0.5875       0.4352    1427.39453       0.5874       0.4352
   1427.37927       0.4374       0.3688    1427.37927       0.4374       0.3688
   1427.36401       0.5303       0.4146    1427.36401       0.5302       0.4146
   1427.34875       0.5293       0.3134    1427.34875       0.5292       0.3134
   1427.33350       0.4365       0.4104    1427.33350       0.4364       0.4104
   1427.31824       0.4793       0.4616    1427.31824       0.4793       0.4617
   1427.30298       0.5277       0.4469    1427.30298       0.5277       0.4470
   1427.28772       0.5660       0.4014    1427.28772       0.5659       0.4014
   1427.27246       0.5186       0.4265    1427.27246       0.5185       0.4266
   1427.25720       0.5136       0.3538    1427.25720       0.5136       0.3538
   1427.24194       0.4643       0.4310    1427.24194       0.4643       0.4311
   1427.22668       0.5004       0.4658    1427.22668       0.5004       0.4658
   1427.21143       0.5855       0.4027    1427.21143       0.5855       0.4027
   1427.19617       0.5626       0.4727    1427.19617       0.5625       0.4727
   1427.18091       0.5288       0.4686    1427.18091       0.5288       0.4687
   1427.16565       0.5734       0.3932    1427.16565       0.5733       0.3932
   1427.15039       0.5154       0.5069    1427.15039       0.5154       0.5069
   1427.13513       0.4931       0.4531    1427.13513       0.4931       0.4532
   1427.11987       0.5425       0.4220    1427.11987       0.5425       0.4220
   1427.10461       0.4664       0.3582    1427.10461       0.4663       0.3582
   1427.08936       0.6106       0.4481    1427.08936       0.6105       0.4482
   1427.07410       0.4976       0.4440    1427.07410       0.4976       0.4441
   1427.05884       0.5407       0.4678    1427.05884       0.5407       0.4678
   1427.04358       0.4875       0.4939    1427.04358       0.4874       0.4940
   1427.02832       0.4983       0.4517    1427.02832       0.4983       0.4517
   1427.01306       0.5568       0.4472    1427.01306       0.5567       0.4472
   1426.99780       0.5116       0.3950    1426.99780       0.5115       0.3950
   1426.98254       0.5206       0.4534    1426.98254       0.5205       0.4534
   1426.96729       0.5565       0.3703    1426.96729       0.5564       0.3703
   1426.95203       0.5154       0.5029    1426.95203       0.5154       0.5030
   1426.93677       0.4996       0.4189    1426.93677       0.4996       0.4190
   1426.92151       0.5053       0.4724    1426.92151       0.5052       0.4724
   1426.90625       0.5266       0.3888    1426.90625       0.5266       0.3889
   1426.89099       0.4603       0.4942    1426.89099       0.4603       0.4943
   1426.87573       0.5666       0.4683    1426.87573       0.5665       0.4683
   1426.86047       0.5504       0.4297    1426.86047       0.5504       0.4298
   1426.84521       0.4939       0.4406    1426.84521       0.4939       0.4407
   1426.82996       0.5908       0.4739    1426.82996       0.5908       0.4739
   1426.81470       0.5354       0.4616    1426.81470       0.5353       0.4616
   1426.79944       0.5723       0.4927    1426.79944       0.5723       0.4927
   1426.78418       0.5710       0.4876    1426.78418       0.5709       0.4876
   1426.76892       0.5413       0.3657    1426.76892       0.5412       0.3657
   1426.75366       0.5975       0.4592    1426.75366       0.5974       0.4593
   1426.73840       0.5148       0.4898    1426.73840       0.5147       0.4898
   1426.72314       0.5504       0.4401    1426.72314       0.5503       0.4402
   1426.70789       0.5198       0.5295    1426.70789       0.5198       0.5295
   1426.69263       0.5368       0.4019    1426.69263       0.5367       0.4020
   1426.67737       0.5348       0.4104    1426.67737       0.5348       0.4104
   1426.66211       0.5392       0.4398    1426.66211       0.5391       0.4398
   1426.64685       0.4709       0.4198    1426.64685       0.4708       0.4198
   1426.63159       0.5196       0.5811    1426.63159       0.5195       0.5812
   1426.61633       0.5749       0.4790    1426.61633       0.5748       0.4790
   1426.60107       0.4818       0.4658    1426.60107       0.4817       0.4658
   1426.58582       0.4739       0.4645    1426.58582       0.4739       0.4645
   1426.57056       0.5291       0.4584    1426.57056       0.5290       0.4585
   1426.55530       0.4941       0.4932    1426.55530       0.4940       0.4933
   1426.54004       0.4935       0.3703    1426.54004       0.4934       0.3703
   1426.52478       0.5249       0.4019    1426.52478       0.5248       0.4019
   1426.50952       0.4769       0.4844    1426.50952       0.4768       0.4844
   1426.49426       0.5035       0.4740    1426.49426       0.5034       0.4740
   1426.47900       0.5478       0.5219    1426.47900       0.5477       0.5219
   1426.46375       0.5546       0.4669    1426.46375       0.5545       0.4670
   1426.44849       0.4737       0.5127    1426.44849       0.4736       0.5128
   1426.43323       0.4197       0.4788    1426.43323       0.4197       0.4788
   1426.41797       0.4869       0.5092    1426.41797       0.4868       0.5092
   1426.40271       0.5037       0.5345    1426.40271       0.5037       0.5345
   1426.38745       0.4717       0.5026    1426.38745       0.4716       0.5026
   1426.37219       0.4188       0.4580    1426.37219       0.4188       0.4580
   1426.35693       0.5082       0.5150    1426.35693       0.5081       0.5151
   1426.34167       0.4400       0.4219    1426.34167       0.4399       0.4220
   1426.32642       0.5019       0.5184    1426.32642       0.5019       0.5184
   1426.31116       0.4532       0.5039    1426.31116       0.4532       0.5039
   1426.29590       0.5272       0.4734    1426.29590       0.5272       0.4734
   1426.28064       0.5002       0.5434    1426.28064       0.5001       0.5434
   1426.26538       0.5219       0.4282    1426.26538       0.5218       0.4283
   1426.25012       0.5022       0.3566    1426.25012       0.5021       0.3566
   1426.23486       0.4556       0.4775    1426.23486       0.4556       0.4776
   1426.21960       0.4325       0.3920    1426.21960       0.4325       0.3920
   1426.20435       0.4522       0.4835    1426.20435       0.4522       0.4835
   1426.18909       0.5047       0.4368    1426.18909       0.5046       0.4368
   1426.17383       0.4974       0.3683    1426.17383       0.4974       0.3683
   1426.15857       0.5188       0.4371    1426.15857       0.5188       0.4371
   1426.14331       0.5774       0.3905    1426.14331       0.5773       0.3906
   1426.12805       0.5023       0.4903    1426.12805       0.5023       0.4904
   1426.11279       0.5580       0.5061    1426.11279       0.5580       0.5061
   1426.09753       0.5207       0.4640    1426.09753       0.5207       0.4640
   1426.08228       0.4754       0.5052    1426.08228       0.4753       0.5052
   1426.06702       0.4535       0.4030    1426.06702       0.4535       0.4030
   1426.05176       0.5309       0.5264    1426.05176       0.5308       0.5264
   1426.03650       0.5397       0.4674    1426.03650       0.5396       0.4674
   1426.02124       0.5121       0.4618    1426.02124       0.5121       0.4619
   1426.00598       0.4786       0.3779    1426.00598       0.4785       0.3779
   1425.99072       0.4812       0.5158    1425.99072       0.4811       0.5158
   1425.97546       0.4673       0.4846    1425.97546       0.4672       0.4846
   1425.96021       0.4915       0.4917    1425.96021       0.4914       0.4918
   1425.94495       0.4960       0.5878    1425.94495       0.4959       0.5878
   1425.92969       0.4814       0.4907    1425.92969       0.4814       0.4907
   1425.91443       0.4701       0.3793    1425.91443       0.4700       0.3793
   1425.89917       0.4935       0.5413    1425.89917       0.4934       0.5413
   1425.88391       0.4957       0.5399    1425.88391       0.4957       0.5400
   1425.86865       0.4648       0.4471    1425.86865       0.4647       0.4471
   1425.85339       0.5041       0.5070    1425.85339       0.5040       0.5070
   1425.83813       0.5739       0.4501    1425.83813       0.5739       0.4502
   1425.82288       0.5256       0.4741    1425.82288       0.5255       0.4741
   1425.80762       0.4886       0.5170    1425.80762       0.4885       0.5171
   1425.79236       0.4786       0.5257    1425.79236       0.4785       0.5257
   1425.77710       0.4589       0.4760    1425.77710       0.4589       0.4760
   1425.76184       0.5000       0.3823    1425.76184       0.4999       0.3824
   1425.74658       0.4641       0.4501    1425.74658       0.4640       0.4501
   1425.73132       0.4667       0.4995    1425.73132       0.4666       0.4996
   1425.71606       0.5793       0.4478    1425.71606       0.5792       0.4478
   1425.70081       0.4315       0.4900    1425.70081       0.4314       0.4901
   1425.68555       0.4750       0.3310    1425.68555       0.4749       0.3310
   1425.67029       0.4767       0.5688    1425.67029       0.4767       0.5688
   1425.65503       0.5396       0.5069    1425.65503       0.5395       0.5070
   1425.63977       0.5267       0.4839    1425.63977       0.5266       0.4840
   1425.62451       0.5518       0.5255    1425.62451       0.5517       0.5255
   1425.60925       0.5722       0.5129    1425.60925       0.5721       0.5129
   1425.59399       0.4818       0.4840    1425.59399       0.4817       0.4841
   1425.57874       0.4967       0.4149    1425.57874       0.4966       0.4150
   1425.56348       0.4306       0.4606    1425.56348       0.4306       0.4606
   1425.54822       0.5021       0.4095    1425.54822       0.5020       0.4095
   1425.53296       0.4968       0.5144    1425.53296       0.4967       0.5144
   1425.51770       0.4005       0.5359    1425.51770       0.4005       0.5359
   1425.50244       0.4746       0.4836    1425.50244       0.4745       0.4837
   1425.48718       0.4668       0.5143    1425.48718       0.4667       0.5144
   1425.47192       0.5072       0.4378    1425.47192       0.5072       0.4379
   1425.45667       0.4164       0.5332    1425.45667       0.4164       0.5332
   1425.44141       0.4724       0.4789    1425.44141       0.4724       0.4789
   1425.42615       0.4834       0.4931    1425.42615       0.4833       0.4932
   1425.41089       0.5192       0.5107    1425.41089       0.5191       0.5107
   1425.39563       0.5411       0.4683    1425.39563       0.5410       0.4683
   1425.38037       0.5609       0.4821    1425.38037       0.5609       0.4821
   1425.36511       0.5242       0.5557    1425.36511       0.5241       0.5558
   1425.34985       0.5103       0.4912    1425.34985       0.5102       0.4912
   1425.33459       0.5795       0.5625    1425.33459       0.5794       0.5625
   1425.31934       0.4907       0.5381    1425.31934       0.4906       0.5381
   1425.30408       0.3925       0.5697    1425.30408       0.3924       0.5697
   1425.28882       0.5017       0.4935    1425.28882       0.5016       0.4935
   1425.27356       0.4484       0.6502    1425.27356       0.4484       0.6503
   1425.25830       0.4167       0.5016    1425.25830       0.4166       0.5017
   1425.24304       0.4693       0.5082    1425.24304       0.4693       0.5082
   1425.22778       0.4891       0.5279    1425.22778       0.4890       0.5279
   1425.21252       0.4092       0.6093    1425.21252       0.4091       0.6094
   1425.19727       0.3579       0.5085    1425.19727       0.3579       0.5085
   1425.18201       0.5023       0.4656    1425.18201       0.5023       0.4657
   1425.16675       0.5299       0.4614    1425.16675       0.5299       0.4614
   1425.15149       0.5579       0.5656    1425.15149       0.5579       0.5657
   1425.13623       0.4504       0.5895    1425.13623       0.4504       0.5895
   1425.12097       0.4194       0.5038    1425.12097       0.4194       0.5038
   1425.10571       0.4725       0.4678    1425.10571       0.4724       0.4678
   1425.09045       0.4644       0.4539    1425.09045       0.4644       0.4540
   1425.07520       0.5589       0.4897    1425.07520       0.5588       0.4898
   1425.05994       0.4660       0.5124    1425.05994       0.4659       0.5124
   1425.04468       0.4241       0.5110    1425.04468       0.4241       0.5110
   1425.02942       0.5187       0.5959    1425.02942       0.5187       0.5960
   1425.01416       0.4870       0.4754    1425.01416       0.4869       0.4755
   1424.99890       0.5071       0.5318    1424.99890       0.5071       0.5318
   1424.98364       0.4699       0.4822    1424.98364       0.4698       0.4822
   1424.96838       0.4994       0.5384    1424.96838       0.4994       0.5384
   1424.95312       0.5535       0.5828    1424.95312       0.5534       0.5829
   1424.93787       0.4913       0.4722    1424.93787       0.4912       0.4722
   1424.92261       0.3960       0.4655    1424.92261       0.3959       0.4656
   1424.90735       0.3702       0.5129    1424.90735       0.3702       0.5130
   1424.89209       0.4196       0.5297    1424.89209       0.4195       0.5297
   1424.87683       0.4375       0.5147    1424.87683       0.4374       0.5147
   1424.86157       0.4318       0.4570    1424.86157       0.4317       0.4570
   1424.84631       0.3515       0.4240    1424.84631       0.3515       0.4240
   1424.83105       0.4141       0.5618    1424.83105       0.4140       0.5618
   1424.81580       0.4144       0.4936    1424.81580       0.4143       0.4936
   1424.80054       0.4386       0.4169    1424.80054       0.4386       0.4169
   1424.78528       0.6007       0.4270    1424.78528       0.6006       0.4270
   1424.77002       0.5259       0.3842    1424.77002       0.5259       0.3842
   1424.75476       0.4717       0.5091    1424.75476       0.4716       0.5092
   1424.73950       0.4883       0.5660    1424.73950       0.4883       0.5661
   1424.72424       0.4404       0.4659    1424.72424       0.4404       0.4660
   1424.70898       0.5297       0.4676    1424.70898       0.5296       0.4676
   1424.69373       0.4897       0.5137    1424.69373       0.4896       0.5138
   1424.67847       0.4571       0.5308    1424.67847       0.4571       0.5308
   1424.66321       0.4161       0.4678    1424.66321       0.4161       0.4678
   1424.64795       0.5243       0.5154    1424.64795       0.5242       0.5154
   1424.63269       0.4020       0.6321    1424.63269       0.4019       0.6321
   1424.61743       0.4413       0.5715    1424.61743       0.4412       0.5716
   1424.60217       0.4239       0.5792    1424.60217       0.4238       0.5792
   1424.58691       0.5202       0.5660    1424.58691       0.5201       0.5660
   1424.57166       0.4709       0.4652    1424.57166       0.4709       0.4652
   1424.55640       0.4641       0.4897    1424.55640       0.4640       0.4897
   1424.54114       0.5053       0.5107    1424.54114       0.5053       0.5107
   1424.52588       0.4786       0.4333    1424.52588       0.4785       0.4333
   1424.51062       0.4675       0.4461    1424.51062       0.4675       0.4462
   1424.49536       0.4459       0.4410    1424.49536       0.4459       0.4410
   1424.48010       0.4816       0.4750    1424.48010       0.4816       0.4750
   1424.46484       0.4929       0.4016    1424.46484       0.4929       0.4016
   1424.44958       0.4273       0.5142    1424.44958       0.4273       0.5142
   1424.43433       0.3770       0.5669    1424.43433       0.3769       0.5670
   1424.41907       0.4261       0.5591    1424.41907       0.4260       0.5591
   1424.40381       0.4186       0.4889    1424.40381       0.4185       0.4889
   1424.38855       0.3910       0.4639    1424.38855       0.3909       0.4640
   1424.37329       0.4575       0.5769    1424.37329       0.4574       0.5769
   1424.35803       0.4716       0.5025    1424.35803       0.4716       0.5025
   1424.34277       0.4656       0.5035    1424.34277       0.4655       0.5035
   1424.32751       0.4863       0.5679    1424.32751       0.4862       0.5680
   1424.31226       0.4366       0.4914    1424.31226       0.4366       0.4914
   1424.29700       0.4367       0.5511    1424.29700       0.4366       0.5511
   1424.28174       0.4317       0.4233    1424.28174       0.4316       0.4233
   1424.26648       0.4852       0.5380    1424.26648       0.4851       0.5380
   1424.25122       0.4551       0.4563    1424.25122       0.4550       0.4564
   1424.23596       0.4156       0.5213    1424.23596       0.4155       0.5214
   1424.22070       0.4656       0.5112    1424.22070       0.4655       0.5112
   1424.20544       0.5369       0.4332    1424.20544       0.5368       0.4332
   1424.19019       0.4824       0.5020    1424.19019       0.4824       0.5020
   1424.17493       0.4629       0.4374    1424.17493       0.4629       0.4374
   1424.15967       0.4838       0.4931    1424.15967       0.4837       0.4931
   1424.14441       0.5046       0.4810    1424.14441       0.5045       0.4811
   1424.12915       0.4727       0.4619    1424.12915       0.4726       0.4619
   1424.11389       0.5009       0.4464    1424.11389       0.5008       0.4465
   1424.09863       0.4365       0.4470    1424.09863       0.4364       0.4471
   1424.08337       0.3717       0.4848    1424.08337       0.3717       0.4848
   1424.06812       0.4025       0.4948    1424.06812       0.4025       0.4948
   1424.05286       0.4581       0.5483    1424.05286       0.4580       0.5483
   1424.03760       0.4068       0.4840    1424.03760       0.4068       0.4840
   1424.02234       0.4441       0.5255    1424.02234       0.4440       0.5255
   1424.00708       0.4492       0.4112    1424.00708       0.4492       0.4112
   1423.99182       0.4334       0.4667    1423.99182       0.4334       0.4667
   1423.97656       0.4536       0.4963    1423.97656       0.4536       0.4963
   1423.96130       0.4876       0.5452    1423.96130       0.4875       0.5452
   1423.94604       0.4372       0.5324    1423.94604       0.4372       0.5324
   1423.93079       0.5215       0.4287    1423.93079       0.5214       0.4287
   1423.91553       0.5622       0.5149    1423.91553       0.5621       0.5149
   1423.90027       0.4585       0.5028    1423.90027       0.4585       0.5028
   1423.88501       0.4377       0.5285    1423.88501       0.4377       0.5286
   1423.86975       0.4362       0.4215    1423.86975       0.4362       0.4216
   1423.85449       0.4857       0.5209    1423.85449       0.4857       0.5209
   1423.83923       0.4018       0.5408    1423.83923       0.4017       0.5409
   1423.82397       0.4084       0.5218    1423.82397       0.4083       0.5218
   1423.80872       0.4904       0.5319    1423.80872       0.4904       0.5319
   1423.79346       0.4485       0.5047    1423.79346       0.4484       0.5047
   1423.77820       0.4318       0.5074    1423.77820       0.4317       0.5075
   1423.76294       0.4142       0.4761    1423.76294       0.4141       0.4761
   1423.74768       0.4320       0.4857    1423.74768       0.4319       0.4857
   1423.73242       0.3997       0.4530    1423.73242       0.3996       0.4531
   1423.71716       0.4632       0.4852    1423.71716       0.4632       0.4852
   1423.70190       0.3914       0.5228    1423.70190       0.3914       0.5228
   1423.68665       0.3960       0.5214    1423.68665       0.3960       0.5214
   1423.67139       0.4137       0.4943    1423.67139       0.4136       0.4944
   1423.65613       0.4681       0.4149    1423.65613       0.4680       0.4149
   1423.64087       0.3979       0.4481    1423.64087       0.3978       0.4481
   1423.62561       0.4912       0.5343    1423.62561       0.4911       0.5343
   1423.61035       0.4932       0.4586    1423.61035       0.4931       0.4587
   1423.59509       0.5107       0.4351    1423.59509       0.5107       0.4351
   1423.57983       0.4733       0.5290    1423.57983       0.4732       0.5291
   1423.56458       0.5887       0.4974    1423.56458       0.5886       0.4974
   1423.54932       0.4514       0.5182    1423.54932       0.4514       0.5182
   1423.53406       0.3946       0.4578    1423.53406       0.3946       0.4578
   1423.51880       0.4304       0.5550    1423.51880       0.4303       0.5551
   1423.50354       0.5193       0.5389    1423.50354       0.5193       0.5389
   1423.48828       0.4590       0.5512    1423.48828       0.4589       0.5512
   1423.47302       0.4801       0.4676    1423.47302       0.4800       0.4676
   1423.45776       0.5353       0.4106    1423.45776       0.5352       0.4106
   1423.44250       0.4633       0.4808    1423.44250       0.4632       0.4809
   1423.42725       0.4672       0.4845    1423.42725       0.4672       0.4846
   1423.41199       0.4437       0.5869    1423.41199       0.4437       0.5869
   1423.39673       0.4664       0.5361    1423.39673       0.4663       0.5362
   1423.38147       0.4596       0.4787    1423.38147       0.4595       0.4788
   1423.36621       0.4800       0.6339    1423.36621       0.4799       0.6340
   1423.35095       0.5066       0.5293    1423.35095       0.5066       0.5293
   1423.33569       0.4796       0.5630    1423.33569       0.4795       0.5631
   1423.32043       0.5754       0.5088    1423.32043       0.5753       0.5088
   1423.30518       0.5867       0.5573    1423.30518       0.5867       0.5574
   1423.28992       0.6765       0.6242    1423.28992       0.6764       0.6242
   1423.27466       0.7623       0.6886    1423.27466       0.7622       0.6886
   1423.25940       0.8373       0.7755    1423.25940       0.8372       0.7756
   1423.24414       0.9153       0.9493    1423.24414       0.9152       0.9494
   1423.22888       1.0088       0.9976    1423.22888       1.0086       0.9977
   1423.21362       1.1851       1.1126    1423.21362       1.1849       1.1127
   1423.19836       1.2234       1.1411    1423.19836       1.2233       1.1411
   1423.18311       1.2693       1.2754    1423.18311       1.2692       1.2755
   1423.16785       1.3794       1.4237    1423.16785       1.3792       1.4238
   1423.15259       1.5243       1.4501    1423.15259       1.5241       1.4502
   1423.13733       1.6108       1.6330    1423.13733       1.6106       1.6332
   1423.12207       1.6639       1.7125    1423.12207       1.6637       1.7126
   1423.10681       1.7237       1.7993    1423.10681       1.7235       1.7994
   1423.09155       1.9023       1.8287    1423.09155       1.9020       1.8288
   1423.07629       1.9813       1.9084    1423.07629       1.9810       1.9086
   1423.06104       1.8499       2.0016    1423.06104       1.8496       2.0018
   1423.04578       1.8622       1.8989    1423.04578       1.8619       1.8990
   1423.03052       1.8728       1.9179    1423.03052       1.8726       1.9181
   1423.01526       2.0364       2.1015    1423.01526       2.0361       2.1016
   1423.00000       2.1173       2.2252    1423.00000       2.1170       2.2254
   1422.98474       2.2238       2.3042    1422.98474       2.2235       2.3044
   1422.96948       2.0379       1.9956    1422.96948       2.0377       1.9958
   1422.95422       2.1021       2.0239    1422.95422       2.1018       2.0241
   1422.93896       2.1518       2.0671    1422.93896       2.1515       2.0672
   1422.92371       2.0939       2.0038    1422.92371       2.0937       2.0039
   1422.90845       2.0440       1.9904    1422.90845       2.0437       1.9905
   1422.89319       2.0232       1.9639    1422.89319       2.0230       1.9640
   1422.87793       1.9997       1.9828    1422.87793       1.9994       1.9830
   1422.86267       1.9675       1.9767    1422.86267       1.9673       1.9768
   1422.84741       1.9109       1.8706    1422.84741       1.9107       1.8708
   1422.83215       1.9772       1.7350    1422.83215       1.9770       1.7351
   1422.81689       1.8983       1.8787    1422.81689       1.8981       1.8788
   1422.80164       1.9352       1.9487    1422.80164       1.9350       1.9489
   1422.78638       1.9332       1.8352    1422.78638       1.9329       1.8353
   1422.77112       1.9576       1.7704    1422.77112       1.9574       1.7706
   1422.75586       1.9203       1.8471    1422.75586       1.9201       1.8472
   1422.74060       1.8668       1.8406    1422.74060       1.8665       1.8407
   1422.72534       1.9549       1.8427    1422.72534       1.9546       1.8428
   1422.71008       1.9903       1.8803    1422.71008       1.9901       1.8804
   1422.69482       2.0862       1.9477    1422.69482       2.0860       1.9478
   1422.67957       2.1386       2.0857    1422.67957       2.1384       2.0858
   1422.66431       2.1907       2.1574    1422.66431       2.1904       2.1575
   1422.64905       2.3321       2.1335    1422.64905       2.3318       2.1337
   1422.63379       2.3583       2.2017    1422.63379       2.3580       2.2018
   1422.61853       2.3182       2.2673    1422.61853       2.3179       2.2675
   1422.60327       2.3565       2.2825    1422.60327       2.3562       2.2826
   1422.58801       2.4213       2.3627    1422.58801       2.4210       2.3629
   1422.57275       2.4508       2.3384    1422.57275       2.4505       2.3386
   1422.55750       2.4918       2.3943    1422.55750       2.4915       2.3944
   1422.54224       2.5492       2.3405    1422.54224       2.5489       2.3406
   1422.52698       2.5938       2.4410    1422.52698       2.5934       2.4412
   1422.51172       2.6460       2.4758    1422.51172       2.6457       2.4760
   1422.49646       2.5737       2.5100    1422.49646       2.5734       2.5101
   1422.48120       2.7222       2.4972    1422.48120       2.7218       2.4973
   1422.46594       2.7991       2.6280    1422.46594       2.7987       2.6281
   1422.45068       2.8385       2.6121    1422.45068       2.8382       2.6123
   1422.43542       2.9941       2.6965    1422.43542       2.9938       2.6967
   1422.42017       2.9846       2.7144    1422.42017       2.9843       2.7146
   1422.40491       2.9963       2.7960    1422.40491       2.9959       2.7962
   1422.38965       2.9823       2.8091    1422.38965       2.9819       2.8093
   1422.37439       3.0911       2.7641    1422.37439       3.0907       2.7643
   1422.35913       2.9754       2.8154    1422.35913       2.9750       2.8156
   1422.34387       2.9083       2.7201    1422.34387       2.9079       2.7203
   1422.32861       2.9637       2.7440    1422.32861       2.9633       2.7442
   1422.31335       3.0221       2.8778    1422.31335       3.0217       2.8780
   1422.29810       3.0811       2.8433    1422.29810       3.0807       2.8435
   1422.28284       3.0650       2.8272    1422.28284       3.0646       2.8273
   1422.26758       2.9669       2.7849    1422.26758       2.9665       2.7851
   1422.25232       3.0835       2.8163    1422.25232       3.0832       2.8165
   1422.23706       3.0305       2.7507    1422.23706       3.0301       2.7509
   1422.22180       3.1224       2.7829    1422.22180       3.1220       2.7831
   1422.20654       3.0001       2.6877    1422.20654       2.9997       2.6879
   1422.19128       2.9025       2.6821    1422.19128       2.9021       2.6823
   1422.17603       2.8932       2.6198    1422.17603       2.8928       2.6200
   1422.16077       2.9025       2.6741    1422.16077       2.9021       2.6743
   1422.14551       2.8715       2.5338    1422.14551       2.8711       2.5339
   1422.13025       2.9230       2.6645    1422.13025       2.9226       2.6647
   1422.11499       2.8881       2.6534    1422.11499       2.8877       2.6535
   1422.09973       2.7273       2.6212    1422.09973       2.7270       2.6214
   1422.08447       2.6808       2.4969    1422.08447       2.6805       2.4970
   1422.06921       2.6819       2.4145    1422.06921       2.6815       2.4146
   1422.05396       2.5667       2.2769    1422.05396       2.5664       2.2771
   1422.03870       2.4996       2.3555    1422.03870       2.4993       2.3557
   1422.02344       2.4342       2.2835    1422.02344       2.4339       2.2836
   1422.00818       2.3927       2.2339    1422.00818       2.3924       2.2340
   1421.99292       2.2765       2.1142    1421.99292       2.2762       2.1143
   1421.97766       2.1828       2.0747    1421.97766       2.1826       2.0749
   1421.96240       2.0540       2.0471    1421.96240       2.0537       2.0473
   1421.94714       1.8920       1.8359    1421.94714       1.8918       1.8360
   1421.93188       1.8647       1.7319    1421.93188       1.8645       1.7320
   1421.91663       1.7113       1.6694    1421.91663       1.7110       1.6695
   1421.90137       1.7307       1.6058    1421.90137       1.7305       1.6059
   1421.88611       1.6822       1.5117    1421.88611       1.6820       1.5118
   1421.87085       1.5366       1.4715    1421.87085       1.5365       1.4716
   1421.85559       1.4482       1.4412    1421.85559       1.4480       1.4413
   1421.84033       1.3907       1.3542    1421.84033       1.3905       1.3543
   1421.82507       1.3087       1.3041    1421.82507       1.3085       1.3042
   1421.80981       1.2971       1.2882    1421.80981       1.2969       1.2883
   1421.79456       1.2678       1.1356    1421.79456       1.2676       1.1357
   1421.77930       1.1653       1.1401    1421.77930       1.1651       1.1402
   1421.76404       1.1343       1.0986    1421.76404       1.1341       1.0987
   1421.74878       1.0628       1.0257    1421.74878       1.0627       1.0258
   1421.73352       0.9843       1.0372    1421.73352       0.9842       1.0373
   1421.71826       1.0044       0.9463    1421.71826       1.0042       0.9464
   1421.70300       0.9080       0.9195    1421.70300       0.9079       0.9196
   1421.68774       0.9395       0.9443    1421.68774       0.9394       0.9444
   1421.67249       0.8479       0.8217    1421.67249       0.8478       0.8218
   1421.65723       0.8439       0.8665    1421.65723       0.8438       0.8665
   1421.64197       0.8066       0.8531    1421.64197       0.8065       0.8532
   1421.62671       0.8261       0.7685    1421.62671       0.8260       0.7685
   1421.61145       0.7940       0.8285    1421.61145       0.7939       0.8286
   1421.59619       0.8117       0.7528    1421.59619       0.8116       0.7528
   1421.58093       0.7631       0.6656    1421.58093       0.7631       0.6656
   1421.56567       0.7485       0.6904    1421.56567       0.7484       0.6904
   1421.55042       0.7322       0.6958    1421.55042       0.7321       0.6958
   1421.53516       0.8086       0.6247    1421.53516       0.8085       0.6248
   1421.51990       0.7689       0.6646    1421.51990       0.7688       0.6646
   1421.50464       0.7234       0.6816    1421.50464       0.7234       0.6817
   1421.48938       0.6516       0.6935    1421.48938       0.6515       0.6935
   1421.47412       0.7520       0.7113    1421.47412       0.7519       0.7113
   1421.45886       0.7388       0.6391    1421.45886       0.7387       0.6391
   1421.44360       0.7294       0.6877    1421.44360       0.7293       0.6878
   1421.42834       0.6552       0.6098    1421.42834       0.6551       0.6099
   1421.41309       0.6195       0.6185    1421.41309       0.6195       0.6185
   1421.39783       0.6169       0.5419    1421.39783       0.6168       0.5419
   1421.38257       0.6164       0.5770    1421.38257       0.6163       0.5771
   1421.36731       0.5375       0.6172    1421.36731       0.5375       0.6173
   1421.35205       0.5620       0.5584    1421.35205       0.5619       0.5584
   1421.33679       0.5892       0.6046    1421.33679       0.5892       0.6047
   1421.32153       0.5817       0.5428    1421.32153       0.5816       0.5429
   1421.30627       0.6062       0.5374    1421.30627       0.6061       0.5374
   1421.29102       0.5776       0.6099    1421.29102       0.5775       0.6099
   1421.27576       0.5394       0.6051    1421.27576       0.5393       0.6052
   1421.26050       0.5796       0.6554    1421.26050       0.5795       0.6554
   1421.24524       0.6046       0.6115    1421.24524       0.6045       0.6116
   1421.22998       0.5308       0.5352    1421.22998       0.5308       0.5352
   1421.21472       0.6029       0.5910    1421.21472       0.6028       0.5910
   1421.19946       0.5284       0.5790    1421.19946       0.5283       0.5790
   1421.18420       0.6124       0.5674    1421.18420       0.6123       0.5674
   1421.16895       0.5875       0.6448    1421.16895       0.5874       0.6448
   1421.15369       0.5069       0.4996    1421.15369       0.5069       0.4996
   1421.13843       0.6149       0.5753    1421.13843       0.6148       0.5754
   1421.12317       0.5577       0.5671    1421.12317       0.5576       0.5671
   1421.10791       0.6012       0.5829    1421.10791       0.6011       0.5830
   1421.09265       0.5169       0.6061    1421.09265       0.5168       0.6061
   1421.07739       0.5296       0.5261    1421.07739       0.5296       0.5261
   1421.06213       0.5013       0.5895    1421.06213       0.5012       0.5896
   1421.04688       0.5515       0.4807    1421.04688       0.5514       0.4808
   1421.03162       0.4767       0.4786    1421.03162       0.4767       0.4787
   1421.01636       0.3040       0.3607    1421.01636       0.3039       0.3608
   1421.00110       0.2150       0.2256    1421.00110       0.2150       0.2256
   1420.98584       0.2021       0.2409    1420.98584       0.2021       0.2410
   1420.97058       0.3412       0.2155    1420.97058       0.3412       0.2156
   1420.95532       0.2907       0.3261    1420.95532       0.2907       0.3261
   1420.94006       0.3647       0.3749    1420.94006       0.3647       0.3749
   1420.92480       0.4421       0.4190    1420.92480       0.4421       0.4191
   1420.90955       0.5216       0.4809    1420.90955       0.5215       0.4809
   1420.89429       0.4058       0.5219    1420.89429       0.4058       0.5220
   1420.87903       0.5881       0.6101    1420.87903       0.5880       0.6102
   1420.86377       0.6070       0.6549    1420.86377       0.6069       0.6550
   1420.84851       0.7805       0.7506    1420.84851       0.7804       0.7507
   1420.83325       0.8630       0.9260    1420.83325       0.8629       0.9260
   1420.81799       1.1539       1.2111    1420.81799       1.1538       1.2112
   1420.80273       1.4090       1.2997    1420.80273       1.4088       1.2998
   1420.78748       1.4282       1.4592    1420.78748       1.4280       1.4593
   1420.77222       1.6134       1.5597    1420.77222       1.6132       1.5598
   1420.75696       1.7119       1.6674    1420.75696       1.7117       1.6676
   1420.74170       1.6901       1.6608    1420.74170       1.6899       1.6609
   1420.72644       1.7826       1.7717    1420.72644       1.7824       1.7719
   1420.71118       1.8860       1.9094    1420.71118       1.8858       1.9095
   1420.69592       1.6315       1.6435    1420.69592       1.6313       1.6437
   1420.68066       0.8728       0.7346    1420.68066       0.8727       0.7346
   1420.66541       0.4986       0.5193    1420.66541       0.4986       0.5193
   1420.65015       0.1637       0.2535    1420.65015       0.1637       0.2535
   1420.63489       0.1792       0.3799    1420.63489       0.1792       0.3799
   1420.61963       0.0560       0.4123    1420.61963       0.0560       0.4123
   1420.60437       0.2430       0.4980    1420.60437       0.2430       0.4980
   1420.58911       0.3310       0.4260    1420.58911       0.3310       0.4261
   1420.57385      -0.1641      -0.0486    1420.57385      -0.1641      -0.0486
   1420.55859      -0.1738      -0.1012    1420.55859      -0.1738      -0.1012
   1420.54333      -0.3557      -0.1534    1420.54333      -0.3556      -0.1534
   1420.52808       1.7753       1.5810    1420.52808       1.7750       1.5811
   1420.51282       5.5582       5.1043    1420.51282       5.5575       5.1046
   1420.49756       6.5548       6.0490    1420.49756       6.5539       6.0494
   1420.48230       0.7419       0.7862    1420.48230       0.7418       0.7863
   1420.46704       0.4957       0.5896    1420.46704       0.4956       0.5896
   1420.45178       0.3413       0.3792    1420.45178       0.3413       0.3792
   1420.43652       0.2486       0.5543    1420.43652       0.2486       0.5543
   1420.42126       0.3216       0.4570    1420.42126       0.3216       0.4571
   1420.40601       0.4084       0.6399    1420.40601       0.4084       0.6400
   1420.39075       0.3794       0.4947    1420.39075       0.3794       0.4947
   1420.37549       0.3305       0.5352    1420.37549       0.3304       0.5353
   1420.36023       0.4178       0.4630    1420.36023       0.4178       0.4630
   1420.34497       0.3700       0.5259    1420.34497       0.3700       0.5259
   1420.32971       0.4410       0.4762    1420.32971       0.4410       0.4762
   1420.31445       0.3901       0.6040    1420.31445       0.3901       0.6041
   1420.29919       0.3471       0.5570    1420.29919       0.3471       0.5570
   1420.28394       0.3713       0.5484    1420.28394       0.3713       0.5484
   1420.26868       0.4353       0.6042    1420.26868       0.4353       0.6042
   1420.25342       0.3850       0.5311    1420.25342       0.3850       0.5311
   1420.23816       0.4616       0.7373    1420.23816       0.4616       0.7374
   1420.22290       0.4448       0.5760    1420.22290       0.4447       0.5760
   1420.20764       0.4879       0.6589    1420.20764       0.4878       0.6590
   1420.19238       0.4010       0.4985    1420.19238       0.4009       0.4985
   1420.17712       0.5310       0.6154    1420.17712       0.5310       0.6154
   1420.16187       0.5012       0.5069    1420.16187       0.5011       0.5070
   1420.14661       0.4750       0.5711    1420.14661       0.4749       0.5711
   1420.13135       0.5087       0.6026    1420.13135       0.5086       0.6026
   1420.11609       0.4632       0.5768    1420.11609       0.4632       0.5768
   1420.10083       0.4242       0.6741    1420.10083       0.4241       0.6742
   1420.08557       0.4274       0.6741    1420.08557       0.4273       0.6742
   1420.07031       0.4521       0.6633    1420.07031       0.4521       0.6633
   1420.05505       0.3696       0.6420    1420.05505       0.3696       0.6420
   1420.03979       0.4132       0.6356    1420.03979       0.4131       0.6357
   1420.02454       0.3986       0.6238    1420.02454       0.3985       0.6239
   1420.00928       0.4385       0.7585    1420.00928       0.4385       0.7585
   1419.99402       0.3229       0.6054    1419.99402       0.3228       0.6054
   1419.97876       0.3871       0.6374    1419.97876       0.3870       0.6374
   1419.96350       0.3455       0.7070    1419.96350       0.3455       0.7070
   1419.94824       0.3288       0.7040    1419.94824       0.3287       0.7040
   1419.93298       0.4846       0.6481    1419.93298       0.4846       0.6481
   1419.91772       0.5044       0.6741    1419.91772       0.5044       0.6742
   1419.90247       0.4882       0.6697    1419.90247       0.4881       0.6697
   1419.88721       0.3725       0.6342    1419.88721       0.3724       0.6343
   1419.87195       0.4604       0.6359    1419.87195       0.4604       0.6359
   1419.85669       0.3668       0.6086    1419.85669       0.3667       0.6086
   1419.84143       0.3621       0.5417    1419.84143       0.3620       0.5418
   1419.82617       0.4024       0.5995    1419.82617       0.4023       0.5995
   1419.81091       0.4319       0.5564    1419.81091       0.4319       0.5564
   1419.79565       0.3966       0.6163    1419.79565       0.3966       0.6163
   1419.78040       0.3992       0.6680    1419.78040       0.3991       0.6681
   1419.76514       0.3847       0.6858    1419.76514       0.3847       0.6858
   1419.74988       0.3278       0.5848    1419.74988       0.3277       0.5849
   1419.73462       0.4096       0.6465    1419.73462       0.4095       0.6465
   1419.71936       0.3614       0.5762    1419.71936       0.3613       0.5763
   1419.70410       0.3445       0.6521    1419.70410       0.3444       0.6522
   1419.68884       0.4047       0.6626    1419.68884       0.4046       0.6627
   1419.67358       0.3407       0.6595    1419.67358       0.3407       0.6595
   1419.65833       0.3316       0.6711    1419.65833       0.3315       0.6711
   1419.64307       0.4030       0.6756    1419.64307       0.4030       0.6757
   1419.62781       0.3476       0.6597    1419.62781       0.3476       0.6598
   1419.61255       0.4288       0.7331    1419.61255       0.4287       0.7332
   1419.59729       0.3832       0.6585    1419.59729       0.3831       0.6586
   1419.58203       0.3882       0.5887    1419.58203       0.3881       0.5888
   1419.56677       0.4244       0.6773    1419.56677       0.4244       0.6773
   1419.55151       0.3662       0.7498    1419.55151       0.3662       0.7499
   1419.53625       0.3657       0.7127    1419.53625       0.3656       0.7127
   1419.52100       0.2949       0.7168    1419.52100       0.2949       0.7169
   1419.50574       0.3650       0.6638    1419.50574       0.3650       0.6639
   1419.49048       0.3723       0.6800    1419.49048       0.3722       0.6800
   1419.47522       0.4186       0.6771    1419.47522       0.4186       0.6771
   1419.45996       0.3393       0.6603    1419.45996       0.3392       0.6603
   1419.44470       0.2620       0.6768    1419.44470       0.2620       0.6768
   1419.42944       0.3867       0.6803    1419.42944       0.3866       0.6804
   1419.41418       0.2509       0.5980    1419.41418       0.2509       0.5981
   1419.39893       0.3803       0.5752    1419.39893       0.3803       0.5753
   1419.38367       0.3041       0.6284    1419.38367       0.3041       0.6284
   1419.36841       0.4862       0.6595    1419.36841       0.4861       0.6596
   1419.35315       0.3684       0.7368    1419.35315       0.3683       0.7368
   1419.33789       0.2918       0.6343    1419.33789       0.2918       0.6344
   1419.32263       0.3157       0.6668    1419.32263       0.3156       0.6669
   1419.30737       0.1992       0.5837    1419.30737       0.1992       0.5838
   1419.29211       0.2665       0.6032    1419.29211       0.2665       0.6033
   1419.27686       0.3495       0.6186    1419.27686       0.3495       0.6187
   1419.26160       0.3012       0.6509    1419.26160       0.3011       0.6509
   1419.24634       0.2877       0.6180    1419.24634       0.2877       0.6181
   1419.23108       0.3247       0.6741    1419.23108       0.3247       0.6742
   1419.21582       0.3383       0.6137    1419.21582       0.3383       0.6138
   1419.20056       0.2950       0.7088    1419.20056       0.2949       0.7089
   1419.18530       0.3591       0.6510    1419.18530       0.3590       0.6511
   1419.17004       0.3212       0.6805    1419.17004       0.3212       0.6805
   1419.15479       0.2873       0.5927    1419.15479       0.2873       0.5927
   1419.13953       0.3570       0.7090    1419.13953       0.3569       0.7090
   1419.12427       0.3417       0.6808    1419.12427       0.3417       0.6808
   1419.10901       0.3446       0.6788    1419.10901       0.3445       0.6789
   1419.09375       0.2983       0.6267    1419.09375       0.2983       0.6267
   1419.07849       0.3200       0.7248    1419.07849       0.3200       0.7248
   1419.06323       0.3389       0.6749    1419.06323       0.3388       0.6750
   1419.04797       0.3271       0.6867    1419.04797       0.3270       0.6868
   1419.03271       0.2870       0.6926    1419.03271       0.2869       0.6927
   1419.01746       0.3135       0.6346    1419.01746       0.3135       0.6346
   1419.00220       0.3283       0.6473    1419.00220       0.3282       0.6473
   1418.98694       0.2954       0.6329    1418.98694       0.2953       0.6329
   1418.97168       0.1954       0.5747    1418.97168       0.1954       0.5747
   1418.95642       0.2909       0.6477    1418.95642       0.2909       0.6478
   1418.94116       0.2246       0.5782    1418.94116       0.2246       0.5782
   1418.92590       0.2664       0.5780    1418.92590       0.2664       0.5781
   1418.91064       0.2926       0.6312    1418.91064       0.2925       0.6312
   1418.89539       0.2434       0.6271    1418.89539       0.2434       0.6271
   1418.88013       0.1957       0.6478    1418.88013       0.1957       0.6478
   1418.86487       0.2536       0.6829    1418.86487       0.2535       0.6829
   1418.84961       0.2391       0.5973    1418.84961       0.2391       0.5973
   1418.83435       0.2925       0.6630    1418.83435       0.2925       0.6631
   1418.81909       0.2789       0.6128    1418.81909       0.2788       0.6128
   1418.80383       0.2071       0.6816    1418.80383       0.2071       0.6816
   1418.78857       0.2746       0.7072    1418.78857       0.2746       0.7073
   1418.77332       0.2665       0.6561    1418.77332       0.2665       0.6561
   1418.75806       0.2915       0.6381    1418.75806       0.2915       0.6381
   1418.74280       0.2050       0.6714    1418.74280       0.2049       0.6714
   1418.72754       0.2724       0.7486    1418.72754       0.2723       0.7487
   1418.71228       0.1834       0.5814    1418.71228       0.1834       0.5814
   1418.69702       0.2319       0.5972    1418.69702       0.2319       0.5972
   1418.68176       0.2512       0.7048    1418.68176       0.2512       0.7049
   1418.66650       0.2529       0.7601    1418.66650       0.2529       0.7601
   1418.65125       0.2570       0.5313    1418.65125       0.2570       0.5313
   1418.63599       0.3321       0.5844    1418.63599       0.3320       0.5844
   1418.62073       0.3258       0.6523    1418.62073       0.3257       0.6524
   1418.60547       0.2420       0.6074    1418.60547       0.2419       0.6074
   1418.59021       0.2588       0.6097    1418.59021       0.2588       0.6097
   1418.57495       0.2742       0.7160    1418.57495       0.2742       0.7161
   1418.55969       0.2686       0.5678    1418.55969       0.2686       0.5678
   1418.54443       0.3657       0.6172    1418.54443       0.3657       0.6172
   1418.52917       0.2345       0.5974    1418.52917       0.2345       0.5974
   1418.51392       0.2217       0.5783    1418.51392       0.2216       0.5783
   1418.49866       0.2558       0.7140    1418.49866       0.2558       0.7140
   1418.48340       0.2233       0.5885    1418.48340       0.2233       0.5885
   1418.46814       0.2785       0.6362    1418.46814       0.2784       0.6362
   1418.45288       0.1827       0.7134    1418.45288       0.1827       0.7134
   1418.43762       0.2329       0.6516    1418.43762       0.2329       0.6517
   1418.42236       0.2665       0.6396    1418.42236       0.2664       0.6397
   1418.40710       0.2497       0.6164    1418.40710       0.2497       0.6165
   1418.39185       0.2382       0.6733    1418.39185       0.2382       0.6733
   1418.37659       0.1825       0.6450    1418.37659       0.1825       0.6450
   1418.36133       0.2541       0.6794    1418.36133       0.2540       0.6794
   1418.34607       0.1737       0.5461    1418.34607       0.1737       0.5461
   1418.33081       0.2300       0.6363    1418.33081       0.2300       0.6364
   1418.31555       0.2764       0.6464    1418.31555       0.2763       0.6464
   1418.30029       0.2190       0.6579    1418.30029       0.2190       0.6579
   1418.28503       0.3108       0.5963    1418.28503       0.3108       0.5964
   1418.26978       0.2338       0.6079    1418.26978       0.2338       0.6080
   1418.25452       0.2624       0.6842    1418.25452       0.2624       0.6843
   1418.23926       0.2509       0.6150    1418.23926       0.2508       0.6150
   1418.22400       0.3274       0.5550    1418.22400       0.3273       0.5550
   1418.20874       0.2134       0.5755    1418.20874       0.2134       0.5755
   1418.19348       0.2362       0.5846    1418.19348       0.2361       0.5846
   1418.17822       0.2542       0.5207    1418.17822       0.2542       0.5208
   1418.16296       0.1369       0.6009    1418.16296       0.1368       0.6010
   1418.14771       0.2057       0.5692    1418.14771       0.2057       0.5692
   1418.13245       0.2374       0.6443    1418.13245       0.2373       0.6443
   1418.11719       0.2683       0.6373    1418.11719       0.2682       0.6374
   1418.10193       0.2104       0.6127    1418.10193       0.2104       0.6128
   1418.08667       0.2091       0.5229    1418.08667       0.2091       0.5229
   1418.07141       0.2390       0.5382    1418.07141       0.2390       0.5382
   1418.05615       0.2579       0.5453    1418.05615       0.2579       0.5454
   1418.04089       0.2323       0.6270    1418.04089       0.2323       0.6270
   1418.02563       0.1762       0.4919    1418.02563       0.1762       0.4919
   1418.01038       0.1827       0.5277    1418.01038       0.1827       0.5277
   1417.99512       0.2721       0.5599    1417.99512       0.2720       0.5600
   1417.97986       0.2680       0.5269    1417.97986       0.2680       0.5269
   1417.96460       0.2576       0.5870    1417.96460       0.2575       0.5870
   1417.94934       0.2568       0.5248    1417.94934       0.2568       0.5248
   1417.93408       0.2861       0.5530    1417.93408       0.2860       0.5531
   1417.91882       0.1842       0.5971    1417.91882       0.1841       0.5971
   1417.90356       0.2974       0.6349    1417.90356       0.2973       0.6349
   1417.88831       0.2845       0.6106    1417.88831       0.2845       0.6107
   1417.87305       0.3284       0.5907    1417.87305       0.3283       0.5908
   1417.85779       0.3055       0.5654    1417.85779       0.3055       0.5654
   1417.84253       0.2918       0.5322    1417.84253       0.2918       0.5322
   1417.82727       0.2631       0.5473    1417.82727       0.2631       0.5473
   1417.81201       0.3348       0.5767    1417.81201       0.3348       0.5767
   1417.79675       0.2246       0.5355    1417.79675       0.2246       0.5356
   1417.78149       0.2227       0.5801    1417.78149       0.2227       0.5801
   1417.76624       0.2693       0.5818    1417.76624       0.2692       0.5819
   1417.75098       0.2916       0.6284    1417.75098       0.2916       0.6285
   1417.73572       0.3051       0.4986    1417.73572       0.3051       0.4986
   1417.72046       0.2693       0.6124    1417.72046       0.2692       0.6124
   1417.70520       0.2888       0.5652    1417.70520       0.2888       0.5652
   1417.68994       0.2774       0.5015    1417.68994       0.2773       0.5015
   1417.67468       0.2332       0.5694    1417.67468       0.2332       0.5695
   1417.65942       0.3192       0.5038    1417.65942       0.3192       0.5038
   1417.64417       0.2757       0.4945    1417.64417       0.2757       0.4945
   1417.62891       0.2209       0.5836    1417.62891       0.2208       0.5837
   1417.61365       0.3019       0.5544    1417.61365       0.3018       0.5544
   1417.59839       0.2490       0.5146    1417.59839       0.2490       0.5147
   1417.58313       0.2619       0.5420    1417.58313       0.2619       0.5420
   1417.56787       0.2632       0.5419    1417.56787       0.2631       0.5419
   1417.55261       0.3092       0.5521    1417.55261       0.3092       0.5521
   1417.53735       0.2731       0.5469    1417.53735       0.2730       0.5469
   1417.52209       0.2933       0.5210    1417.52209       0.2932       0.5210
   1417.50684       0.3460       0.5298    1417.50684       0.3459       0.5299
   1417.49158       0.3517       0.5453    1417.49158       0.3517       0.5453
   1417.47632       0.3314       0.4748    1417.47632       0.3314       0.4748
   1417.46106       0.2588       0.5169    1417.46106       0.2588       0.5169
   1417.44580       0.3674       0.4989    1417.44580       0.3674       0.4989
   1417.43054       0.2091       0.5669    1417.43054       0.2091       0.5669
   1417.41528       0.3654       0.4927    1417.41528       0.3654       0.4927
   1417.40002       0.2580       0.5452    1417.40002       0.2580       0.5452
   1417.38477       0.2477       0.4799    1417.38477       0.2477       0.4800
   1417.36951       0.2837       0.5587    1417.36951       0.2837       0.5587
   1417.35425       0.3136       0.4961    1417.35425       0.3135       0.4961
   1417.33899       0.3172       0.5460    1417.33899       0.3171       0.5460
   1417.32373       0.3761       0.5478    1417.32373       0.3761       0.5478
   1417.30847       0.2898       0.5093    1417.30847       0.2898       0.5094
   1417.29321       0.2995       0.5941    1417.29321       0.2995       0.5941
   1417.27795       0.2490       0.4918    1417.27795       0.2490       0.4918
   1417.26270       0.2796       0.5226    1417.26270       0.2796       0.5226
   1417.24744       0.3238       0.4345    1417.24744       0.3237       0.4346
   1417.23218       0.2889       0.5038    1417.23218       0.2889       0.5038
   1417.21692       0.2594       0.5756    1417.21692       0.2593       0.5756
   1417.20166       0.4284       0.5067    1417.20166       0.4283       0.5067
   1417.18640       0.3186       0.5678    1417.18640       0.3186       0.5679
   1417.17114       0.3242       0.5193    1417.17114       0.3241       0.5194
   1417.15588       0.2431       0.4748    1417.15588       0.2431       0.4749
   1417.14062       0.3261       0.4047    1417.14062       0.3260       0.4047
   1417.12537       0.3805       0.5162    1417.12537       0.3805       0.5163
   1417.11011       0.2580       0.4972    1417.11011       0.2580       0.4972
   1417.09485       0.3892       0.4828    1417.09485       0.3892       0.4829
   1417.07959       0.3030       0.5406    1417.07959       0.3030       0.5406
   1417.06433       0.3636       0.4867    1417.06433       0.3635       0.4867
   1417.04907       0.3022       0.4298    1417.04907       0.3021       0.4298
   1417.03381       0.3821       0.5754    1417.03381       0.3821       0.5754
   1417.01855       0.4266       0.4307    1417.01855       0.4265       0.4307
   1417.00330       0.3655       0.4792    1417.00330       0.3655       0.4792
   1416.98804       0.4522       0.5159    1416.98804       0.4522       0.5159
   1416.97278       0.3213       0.5416    1416.97278       0.3213       0.5416
   1416.95752       0.3826       0.4806    1416.95752       0.3826       0.4806
   1416.94226       0.4173       0.5056    1416.94226       0.4173       0.5057
   1416.92700       0.3262       0.3951    1416.92700       0.3262       0.3951
   1416.91174       0.2632       0.4270    1416.91174       0.2632       0.4271
   1416.89648       0.3327       0.4264    1416.89648       0.3327       0.4265
   1416.88123       0.4289       0.4299    1416.88123       0.4288       0.4300
   1416.86597       0.3526       0.4970    1416.86597       0.3526       0.4970
   1416.85071       0.3550       0.3924    1416.85071       0.3550       0.3924
   1416.83545       0.4355       0.4806    1416.83545       0.4354       0.4807
   1416.82019       0.3426       0.5590    1416.82019       0.3426       0.5590
   1416.80493       0.4138       0.5825    1416.80493       0.4137       0.5825
   1416.78967       0.3069       0.4533    1416.78967       0.3068       0.4534
   1416.77441       0.4021       0.4413    1416.77441       0.4020       0.4413
   1416.75916       0.3389       0.4690    1416.75916       0.3389       0.4690
   1416.74390       0.3050       0.5622    1416.74390       0.3049       0.5623
   1416.72864       0.4335       0.4265    1416.72864       0.4334       0.4265
   1416.71338       0.4299       0.4362    1416.71338       0.4299       0.4362
   1416.69812       0.4288       0.4706    1416.69812       0.4288       0.4706
   1416.68286       0.3771       0.4388    1416.68286       0.3771       0.4388
   1416.66760       0.3586       0.5657    1416.66760       0.3585       0.5657
   1416.65234       0.4365       0.4432    1416.65234       0.4364       0.4433
   1416.63708       0.4031       0.3974    1416.63708       0.4030       0.3975
   1416.62183       0.4453       0.4226    1416.62183       0.4452       0.4226
   1416.60657       0.3767       0.3986    1416.60657       0.3766       0.3986
   1416.59131       0.4112       0.5032    1416.59131       0.4111       0.5032
   1416.57605       0.4282       0.5882    1416.57605       0.4281       0.5883
   1416.56079       0.4558       0.5222    1416.56079       0.4558       0.5223
   1416.54553       0.4469       0.4544    1416.54553       0.4468       0.4545
   1416.53027       0.4720       0.4556    1416.53027       0.4719       0.4556
   1416.51501       0.4064       0.4965    1416.51501       0.4063       0.4966
   1416.49976       0.4632       0.5387    1416.49976       0.4632       0.5387
   1416.48450       0.5351       0.3873    1416.48450       0.5350       0.3873
   1416.46924       0.4085       0.5117    1416.46924       0.4085       0.5117
   1416.45398       0.4397       0.2833    1416.45398       0.4397       0.2833
   1416.43872       0.5289       0.4379    1416.43872       0.5289       0.4379
   1416.42346       0.3829       0.4629    1416.42346       0.3828       0.4630
   1416.40820       0.4592       0.3438    1416.40820       0.4592       0.3438
   1416.39294       0.4334       0.4903    1416.39294       0.4334       0.4903
   1416.37769       0.5336       0.4276    1416.37769       0.5336       0.4276
   1416.36243       0.4121       0.3785    1416.36243       0.4120       0.3785
   1416.34717       0.5412       0.4552    1416.34717       0.5411       0.4553
   1416.33191       0.4648       0.4673    1416.33191       0.4647       0.4673
   1416.31665       0.4302       0.2997    1416.31665       0.4301       0.2998
   1416.30139       0.5418       0.4269    1416.30139       0.5418       0.4269
   1416.28613       0.4961       0.4197    1416.28613       0.4960       0.4197
   1416.27087       0.5463       0.4245    1416.27087       0.5463       0.4246
   1416.25562       0.4020       0.3048    1416.25562       0.4020       0.3048
   1416.24036       0.4881       0.4191    1416.24036       0.4881       0.4192
   1416.22510       0.4386       0.4252    1416.22510       0.4386       0.4252
   1416.20984       0.4964       0.3187    1416.20984       0.4963       0.3188
   1416.19458       0.4502       0.3889    1416.19458       0.4502       0.3889
   1416.17932       0.5106       0.4094    1416.17932       0.5106       0.4095
   1416.16406       0.5349       0.3977    1416.16406       0.5348       0.3977
   1416.14880       0.5443       0.4586    1416.14880       0.5442       0.4587
   1416.13354       0.5071       0.4706    1416.13354       0.5070       0.4707
   1416.11829       0.5246       0.4843    1416.11829       0.5245       0.4843
   1416.10303       0.4687       0.4504    1416.10303       0.4686       0.4504
   1416.08777       0.5908       0.3457    1416.08777       0.5907       0.3457
   1416.07251       0.4951       0.4102    1416.07251       0.4950       0.4102
   1416.05725       0.3439       0.4171    1416.05725       0.3439       0.4171
   1416.04199       0.4858       0.4451    1416.04199       0.4857       0.4451
   1416.02673       0.4534       0.3746    1416.02673       0.4533       0.3746
   1416.01147       0.5401       0.3658    1416.01147       0.5401       0.3658
   1415.99622       0.5211       0.3977    1415.99622       0.5210       0.3977
