#     FILENAME=Skynet_59002_M31_10kpcRadiusB_45049_54638.A.onoff.cal.txt
#     BASENAME=Skynet_59002_M31_10kpcRadiusB_45049_54638
#      CONTROL=SKYNET
#     PROJCODE=Skynet_59002_M31_10kpcRadiusB_45049
#     DATAROOT=/raid/scratch/cyborg/SkynetData
#      DATADIR=/raid/scratch/cyborg
#     DATADIR2=/raid/scratch/cyborg/SkynetData/Skynet_59002_M31_10kpcRadiusB_4
#     SCANNAME=2018_05_24_20
#     SRC_NAME=M31_10kpcRadiusB
#     OBSERVER=unioncollege_21317
#     DATE_OBS=2020-06-02T07:58:50.590
#        OBSID=45049
#      SCANNUM=54638
#          MJD=59002.33253
#          UTC=28731
#     SCANTYPE=onoff
#     DATAMODE=HIRES
#     RECEIVER=Rx1_2
#      OBSFREQ=1395.0000
# Actual_FREQ1=1423.0000,
# Actual_FREQ2=1423.0000
#    LO1Tuning=6873.0000
#     RFFILTER=1355_1435
#        OBSBW=-15.6250
#     EFFBANDW=15.6250
#        NCHAN=1024
#    STARTCHAN=51
#     STOPCHAN=972
#         TINT=0.3000
#         TBIN=0.00419430
#       ACCLEN=2048 
#     DURATION=168.00
#     EXPOSURE=126.88
#        FOCUS=37.071
#       RA,DEC=00:40:36.72, 40:41:18.73
#      RA(deg)=8.76874
#     DEC(deg)=40.68835
#   WIDTH(deg)=2.0882x0.0238
#    AZIM(deg)=60.4500
#    ELEV(deg)=32.1444
#     COORDREF=RA_DEC_
#         HREF=10.0813
#         VREF=40.6884
#      RADESYS=FK5
#       OFFSYS=RADEC
#      EQUINOX=2000.00
#     IFATTENS=21.00, 6.00
#   BALANCELEV=1.200 
#   POWER_XLYR=[1.25, 1.33] 
#       VELDEF=RADI-OBS 
#     VELOCITY=0.000 
#         NPOL=2 
#      POLMODE=Linear 
#      POLTYPE=XXYY 
#      WARNING=None 
#     NOISECAL=HI 
#       PRECAL=2 
#      POSTCAL=2 
#     CRYOTEMP=14 
#      BOXTEMP=25 
#         TSYS=XX1:37.54, YY1:37.67
#         TSYS=XX2:37.53, YY2:37.68
#         TCAL=XX1:9.18, YY1:10.14
#         TCAL=XX2:9.18, YY2:10.14
# Calibrated spectra: Tsys*(ON-OFF)/OFF 
#                
#                
#Freq1(MHz)         XX1          YY1   Freq2(MHz)       XX2         YY2 
   1430.03430       0.3583       0.4496    1430.03430       0.3582       0.4496
   1430.01904       0.4702       0.4881    1430.01904       0.4702       0.4882
   1430.00378       0.4004       0.5868    1430.00378       0.4003       0.5869
   1429.98853       0.4612       0.5166    1429.98853       0.4611       0.5167
   1429.97327       0.4761       0.5230    1429.97327       0.4760       0.5231
   1429.95801       0.4121       0.5157    1429.95801       0.4120       0.5158
   1429.94275       0.3394       0.5893    1429.94275       0.3394       0.5894
   1429.92749       0.4156       0.4023    1429.92749       0.4155       0.4024
   1429.91223       0.5051       0.5778    1429.91223       0.5050       0.5779
   1429.89697       0.5146       0.4949    1429.89697       0.5145       0.4950
   1429.88171       0.4976       0.4560    1429.88171       0.4975       0.4561
   1429.86646       0.5189       0.6961    1429.86646       0.5188       0.6962
   1429.85120       0.3621       0.5645    1429.85120       0.3621       0.5646
   1429.83594       0.5326       0.5735    1429.83594       0.5325       0.5736
   1429.82068       0.4332       0.4532    1429.82068       0.4331       0.4533
   1429.80542       0.5311       0.5080    1429.80542       0.5310       0.5081
   1429.79016       0.4240       0.5744    1429.79016       0.4239       0.5745
   1429.77490       0.3791       0.4322    1429.77490       0.3790       0.4323
   1429.75964       0.5572       0.4177    1429.75964       0.5571       0.4177
   1429.74438       0.4086       0.6391    1429.74438       0.4085       0.6392
   1429.72913       0.3006       0.4986    1429.72913       0.3005       0.4987
   1429.71387       0.4652       0.5453    1429.71387       0.4651       0.5454
   1429.69861       0.5258       0.4998    1429.69861       0.5257       0.4998
   1429.68335       0.4373       0.5121    1429.68335       0.4372       0.5122
   1429.66809       0.5043       0.5799    1429.66809       0.5042       0.5800
   1429.65283       0.4541       0.5230    1429.65283       0.4540       0.5230
   1429.63757       0.4435       0.5509    1429.63757       0.4434       0.5510
   1429.62231       0.4772       0.4984    1429.62231       0.4771       0.4985
   1429.60706       0.4411       0.4590    1429.60706       0.4410       0.4590
   1429.59180       0.5181       0.4772    1429.59180       0.5180       0.4773
   1429.57654       0.4042       0.5716    1429.57654       0.4041       0.5717
   1429.56128       0.4743       0.5301    1429.56128       0.4742       0.5302
   1429.54602       0.3667       0.5369    1429.54602       0.3666       0.5370
   1429.53076       0.3959       0.4841    1429.53076       0.3959       0.4841
   1429.51550       0.4487       0.4913    1429.51550       0.4486       0.4914
   1429.50024       0.4618       0.4869    1429.50024       0.4617       0.4870
   1429.48499       0.3288       0.4673    1429.48499       0.3288       0.4673
   1429.46973       0.5013       0.5553    1429.46973       0.5012       0.5554
   1429.45447       0.5273       0.4901    1429.45447       0.5272       0.4902
   1429.43921       0.5491       0.4953    1429.43921       0.5490       0.4954
   1429.42395       0.3671       0.5070    1429.42395       0.3671       0.5070
   1429.40869       0.3911       0.4593    1429.40869       0.3911       0.4593
   1429.39343       0.4221       0.5215    1429.39343       0.4220       0.5216
   1429.37817       0.4014       0.5858    1429.37817       0.4014       0.5859
   1429.36292       0.4495       0.4709    1429.36292       0.4494       0.4710
   1429.34766       0.3701       0.5262    1429.34766       0.3700       0.5263
   1429.33240       0.5215       0.5904    1429.33240       0.5214       0.5905
   1429.31714       0.4809       0.4562    1429.31714       0.4808       0.4563
   1429.30188       0.3953       0.4059    1429.30188       0.3952       0.4060
   1429.28662       0.4336       0.5130    1429.28662       0.4335       0.5130
   1429.27136       0.3685       0.5161    1429.27136       0.3684       0.5162
   1429.25610       0.3856       0.5361    1429.25610       0.3855       0.5362
   1429.24084       0.3994       0.5352    1429.24084       0.3994       0.5352
   1429.22559       0.4764       0.5677    1429.22559       0.4764       0.5678
   1429.21033       0.5645       0.4491    1429.21033       0.5644       0.4491
   1429.19507       0.4152       0.5303    1429.19507       0.4151       0.5304
   1429.17981       0.4303       0.5551    1429.17981       0.4302       0.5551
   1429.16455       0.4848       0.4526    1429.16455       0.4847       0.4527
   1429.14929       0.4888       0.4796    1429.14929       0.4887       0.4797
   1429.13403       0.4608       0.5008    1429.13403       0.4607       0.5009
   1429.11877       0.4403       0.3536    1429.11877       0.4402       0.3537
   1429.10352       0.4524       0.4577    1429.10352       0.4523       0.4578
   1429.08826       0.4292       0.4318    1429.08826       0.4291       0.4319
   1429.07300       0.4012       0.4939    1429.07300       0.4011       0.4940
   1429.05774       0.4160       0.5298    1429.05774       0.4160       0.5299
   1429.04248       0.5038       0.4828    1429.04248       0.5037       0.4828
   1429.02722       0.5181       0.4038    1429.02722       0.5180       0.4038
   1429.01196       0.5554       0.4489    1429.01196       0.5553       0.4489
   1428.99670       0.4486       0.4114    1428.99670       0.4485       0.4115
   1428.98145       0.5267       0.5282    1428.98145       0.5266       0.5283
   1428.96619       0.5311       0.4649    1428.96619       0.5310       0.4650
   1428.95093       0.5718       0.4696    1428.95093       0.5717       0.4697
   1428.93567       0.5087       0.5056    1428.93567       0.5086       0.5057
   1428.92041       0.5363       0.4583    1428.92041       0.5362       0.4583
   1428.90515       0.3748       0.5174    1428.90515       0.3747       0.5175
   1428.88989       0.4248       0.5067    1428.88989       0.4247       0.5068
   1428.87463       0.6403       0.4921    1428.87463       0.6402       0.4921
   1428.85938       0.5588       0.4079    1428.85938       0.5587       0.4080
   1428.84412       0.5338       0.4880    1428.84412       0.5337       0.4880
   1428.82886       0.4902       0.5338    1428.82886       0.4901       0.5339
   1428.81360       0.4222       0.5620    1428.81360       0.4221       0.5620
   1428.79834       0.4672       0.5209    1428.79834       0.4671       0.5209
   1428.78308       0.6149       0.4523    1428.78308       0.6148       0.4524
   1428.76782       0.5343       0.4674    1428.76782       0.5342       0.4675
   1428.75256       0.4773       0.5281    1428.75256       0.4772       0.5281
   1428.73730       0.4984       0.4508    1428.73730       0.4983       0.4508
   1428.72205       0.4775       0.4864    1428.72205       0.4774       0.4865
   1428.70679       0.4108       0.4865    1428.70679       0.4107       0.4866
   1428.69153       0.5356       0.5585    1428.69153       0.5355       0.5586
   1428.67627       0.4488       0.3991    1428.67627       0.4487       0.3992
   1428.66101       0.5134       0.5806    1428.66101       0.5133       0.5807
   1428.64575       0.5323       0.5635    1428.64575       0.5322       0.5636
   1428.63049       0.4770       0.4820    1428.63049       0.4769       0.4821
   1428.61523       0.4367       0.4958    1428.61523       0.4366       0.4958
   1428.59998       0.4616       0.4690    1428.59998       0.4615       0.4691
   1428.58472       0.5757       0.4778    1428.58472       0.5756       0.4778
   1428.56946       0.5441       0.4109    1428.56946       0.5440       0.4110
   1428.55420       0.5257       0.4393    1428.55420       0.5256       0.4394
   1428.53894       0.5282       0.5256    1428.53894       0.5281       0.5257
   1428.52368       0.5635       0.4973    1428.52368       0.5634       0.4974
   1428.50842       0.5644       0.5201    1428.50842       0.5643       0.5201
   1428.49316       0.5773       0.3868    1428.49316       0.5772       0.3868
   1428.47791       0.5453       0.4337    1428.47791       0.5452       0.4338
   1428.46265       0.4584       0.4971    1428.46265       0.4583       0.4972
   1428.44739       0.4732       0.4653    1428.44739       0.4731       0.4654
   1428.43213       0.5456       0.4617    1428.43213       0.5455       0.4617
   1428.41687       0.5799       0.5118    1428.41687       0.5798       0.5119
   1428.40161       0.5293       0.4725    1428.40161       0.5292       0.4726
   1428.38635       0.5233       0.4435    1428.38635       0.5232       0.4436
   1428.37109       0.5644       0.4840    1428.37109       0.5643       0.4841
   1428.35583       0.5917       0.4968    1428.35583       0.5916       0.4969
   1428.34058       0.5176       0.4573    1428.34058       0.5175       0.4574
   1428.32532       0.5252       0.4787    1428.32532       0.5251       0.4787
   1428.31006       0.5374       0.4293    1428.31006       0.5373       0.4294
   1428.29480       0.4354       0.5020    1428.29480       0.4353       0.5021
   1428.27954       0.4525       0.4353    1428.27954       0.4525       0.4354
   1428.26428       0.4959       0.4100    1428.26428       0.4958       0.4101
   1428.24902       0.5590       0.4658    1428.24902       0.5589       0.4658
   1428.23376       0.5065       0.4396    1428.23376       0.5064       0.4397
   1428.21851       0.4732       0.4883    1428.21851       0.4731       0.4884
   1428.20325       0.5510       0.4682    1428.20325       0.5509       0.4682
   1428.18799       0.5622       0.4282    1428.18799       0.5621       0.4282
   1428.17273       0.5197       0.4772    1428.17273       0.5197       0.4772
   1428.15747       0.5607       0.5114    1428.15747       0.5606       0.5115
   1428.14221       0.5321       0.4091    1428.14221       0.5320       0.4092
   1428.12695       0.6121       0.4591    1428.12695       0.6120       0.4592
   1428.11169       0.4372       0.3968    1428.11169       0.4371       0.3968
   1428.09644       0.5144       0.5060    1428.09644       0.5143       0.5060
   1428.08118       0.5079       0.4135    1428.08118       0.5078       0.4136
   1428.06592       0.5489       0.4996    1428.06592       0.5488       0.4996
   1428.05066       0.4750       0.3975    1428.05066       0.4749       0.3976
   1428.03540       0.5626       0.4148    1428.03540       0.5625       0.4148
   1428.02014       0.5347       0.4580    1428.02014       0.5346       0.4581
   1428.00488       0.5628       0.4292    1428.00488       0.5627       0.4292
   1427.98962       0.5613       0.3888    1427.98962       0.5612       0.3888
   1427.97437       0.5258       0.4761    1427.97437       0.5257       0.4761
   1427.95911       0.4963       0.5131    1427.95911       0.4962       0.5131
   1427.94385       0.5610       0.5033    1427.94385       0.5609       0.5034
   1427.92859       0.5777       0.4507    1427.92859       0.5776       0.4508
   1427.91333       0.5219       0.4032    1427.91333       0.5218       0.4032
   1427.89807       0.6029       0.4096    1427.89807       0.6028       0.4097
   1427.88281       0.6021       0.4745    1427.88281       0.6020       0.4745
   1427.86755       0.5105       0.4485    1427.86755       0.5104       0.4485
   1427.85229       0.5413       0.5168    1427.85229       0.5412       0.5169
   1427.83704       0.5844       0.3916    1427.83704       0.5843       0.3917
   1427.82178       0.4971       0.4832    1427.82178       0.4970       0.4832
   1427.80652       0.4518       0.4537    1427.80652       0.4517       0.4538
   1427.79126       0.4603       0.5432    1427.79126       0.4602       0.5433
   1427.77600       0.5351       0.4336    1427.77600       0.5350       0.4337
   1427.76074       0.5681       0.4914    1427.76074       0.5680       0.4914
   1427.74548       0.5307       0.4427    1427.74548       0.5306       0.4428
   1427.73022       0.5144       0.4704    1427.73022       0.5143       0.4704
   1427.71497       0.5839       0.4776    1427.71497       0.5838       0.4777
   1427.69971       0.5181       0.4858    1427.69971       0.5180       0.4859
   1427.68445       0.5811       0.4617    1427.68445       0.5810       0.4617
   1427.66919       0.5567       0.4974    1427.66919       0.5566       0.4975
   1427.65393       0.6039       0.4161    1427.65393       0.6038       0.4162
   1427.63867       0.5458       0.5022    1427.63867       0.5457       0.5022
   1427.62341       0.4978       0.4984    1427.62341       0.4977       0.4985
   1427.60815       0.4425       0.5052    1427.60815       0.4424       0.5053
   1427.59290       0.5415       0.4011    1427.59290       0.5414       0.4011
   1427.57764       0.5646       0.4857    1427.57764       0.5645       0.4857
   1427.56238       0.5029       0.4175    1427.56238       0.5028       0.4175
   1427.54712       0.5162       0.4822    1427.54712       0.5161       0.4823
   1427.53186       0.5325       0.4969    1427.53186       0.5324       0.4969
   1427.51660       0.5542       0.5041    1427.51660       0.5541       0.5042
   1427.50134       0.5141       0.4076    1427.50134       0.5140       0.4077
   1427.48608       0.5670       0.5090    1427.48608       0.5669       0.5091
   1427.47083       0.5783       0.4715    1427.47083       0.5782       0.4716
   1427.45557       0.5214       0.4723    1427.45557       0.5213       0.4723
   1427.44031       0.5156       0.4219    1427.44031       0.5155       0.4220
   1427.42505       0.5083       0.3743    1427.42505       0.5082       0.3744
   1427.40979       0.5916       0.4289    1427.40979       0.5915       0.4290
   1427.39453       0.5417       0.4244    1427.39453       0.5416       0.4245
   1427.37927       0.5879       0.4636    1427.37927       0.5878       0.4637
   1427.36401       0.5458       0.4542    1427.36401       0.5457       0.4542
   1427.34875       0.5411       0.3909    1427.34875       0.5410       0.3909
   1427.33350       0.5878       0.4710    1427.33350       0.5877       0.4711
   1427.31824       0.5563       0.4561    1427.31824       0.5562       0.4561
   1427.30298       0.5651       0.4769    1427.30298       0.5650       0.4769
   1427.28772       0.5832       0.4386    1427.28772       0.5831       0.4387
   1427.27246       0.6610       0.5043    1427.27246       0.6609       0.5044
   1427.25720       0.5774       0.5569    1427.25720       0.5773       0.5570
   1427.24194       0.6183       0.4604    1427.24194       0.6182       0.4605
   1427.22668       0.5716       0.4684    1427.22668       0.5715       0.4685
   1427.21143       0.5809       0.4684    1427.21143       0.5808       0.4685
   1427.19617       0.5486       0.4841    1427.19617       0.5485       0.4842
   1427.18091       0.5525       0.4711    1427.18091       0.5524       0.4712
   1427.16565       0.5125       0.4048    1427.16565       0.5124       0.4049
   1427.15039       0.4876       0.5172    1427.15039       0.4875       0.5173
   1427.13513       0.4969       0.4678    1427.13513       0.4968       0.4678
   1427.11987       0.4688       0.4013    1427.11987       0.4688       0.4013
   1427.10461       0.4235       0.4326    1427.10461       0.4234       0.4327
   1427.08936       0.5230       0.4730    1427.08936       0.5229       0.4730
   1427.07410       0.5551       0.5209    1427.07410       0.5550       0.5210
   1427.05884       0.5173       0.3950    1427.05884       0.5172       0.3951
   1427.04358       0.5252       0.3995    1427.04358       0.5251       0.3996
   1427.02832       0.5897       0.4720    1427.02832       0.5896       0.4721
   1427.01306       0.5923       0.5144    1427.01306       0.5921       0.5145
   1426.99780       0.5783       0.5319    1426.99780       0.5781       0.5320
   1426.98254       0.6246       0.5509    1426.98254       0.6245       0.5509
   1426.96729       0.5265       0.4371    1426.96729       0.5264       0.4372
   1426.95203       0.5469       0.4479    1426.95203       0.5468       0.4480
   1426.93677       0.4797       0.5574    1426.93677       0.4796       0.5575
   1426.92151       0.5783       0.5630    1426.92151       0.5782       0.5631
   1426.90625       0.5480       0.5072    1426.90625       0.5479       0.5073
   1426.89099       0.6263       0.5450    1426.89099       0.6262       0.5451
   1426.87573       0.6280       0.4917    1426.87573       0.6279       0.4918
   1426.86047       0.5749       0.5408    1426.86047       0.5748       0.5409
   1426.84521       0.5584       0.4844    1426.84521       0.5583       0.4844
   1426.82996       0.5950       0.5289    1426.82996       0.5949       0.5290
   1426.81470       0.5890       0.6385    1426.81470       0.5889       0.6386
   1426.79944       0.5715       0.5799    1426.79944       0.5714       0.5800
   1426.78418       0.6477       0.5095    1426.78418       0.6476       0.5096
   1426.76892       0.5842       0.5732    1426.76892       0.5840       0.5733
   1426.75366       0.5410       0.5082    1426.75366       0.5409       0.5083
   1426.73840       0.5682       0.4851    1426.73840       0.5680       0.4851
   1426.72314       0.5748       0.5384    1426.72314       0.5747       0.5385
   1426.70789       0.6076       0.6118    1426.70789       0.6074       0.6119
   1426.69263       0.5200       0.6213    1426.69263       0.5199       0.6214
   1426.67737       0.5690       0.5321    1426.67737       0.5689       0.5321
   1426.66211       0.6337       0.5689    1426.66211       0.6336       0.5690
   1426.64685       0.5616       0.5368    1426.64685       0.5615       0.5369
   1426.63159       0.5403       0.5668    1426.63159       0.5402       0.5669
   1426.61633       0.5206       0.5015    1426.61633       0.5205       0.5016
   1426.60107       0.5359       0.5739    1426.60107       0.5358       0.5740
   1426.58582       0.5404       0.5871    1426.58582       0.5403       0.5872
   1426.57056       0.4792       0.4968    1426.57056       0.4791       0.4968
   1426.55530       0.5729       0.5001    1426.55530       0.5728       0.5002
   1426.54004       0.5957       0.5363    1426.54004       0.5956       0.5364
   1426.52478       0.5403       0.4422    1426.52478       0.5402       0.4422
   1426.50952       0.6120       0.5042    1426.50952       0.6118       0.5043
   1426.49426       0.5624       0.5194    1426.49426       0.5623       0.5195
   1426.47900       0.5150       0.5491    1426.47900       0.5149       0.5492
   1426.46375       0.5614       0.6121    1426.46375       0.5613       0.6122
   1426.44849       0.4573       0.6028    1426.44849       0.4573       0.6029
   1426.43323       0.5500       0.5526    1426.43323       0.5499       0.5526
   1426.41797       0.4866       0.4523    1426.41797       0.4865       0.4523
   1426.40271       0.5582       0.5985    1426.40271       0.5581       0.5986
   1426.38745       0.4784       0.6517    1426.38745       0.4783       0.6518
   1426.37219       0.4858       0.6271    1426.37219       0.4857       0.6271
   1426.35693       0.4891       0.5352    1426.35693       0.4890       0.5353
   1426.34167       0.5119       0.5875    1426.34167       0.5118       0.5876
   1426.32642       0.5416       0.5000    1426.32642       0.5415       0.5000
   1426.31116       0.5395       0.4878    1426.31116       0.5394       0.4879
   1426.29590       0.5086       0.6089    1426.29590       0.5085       0.6090
   1426.28064       0.5596       0.7085    1426.28064       0.5595       0.7086
   1426.26538       0.5275       0.6142    1426.26538       0.5274       0.6143
   1426.25012       0.5338       0.6184    1426.25012       0.5337       0.6185
   1426.23486       0.5636       0.5145    1426.23486       0.5635       0.5145
   1426.21960       0.5050       0.5828    1426.21960       0.5049       0.5829
   1426.20435       0.5418       0.5502    1426.20435       0.5417       0.5503
   1426.18909       0.6072       0.5781    1426.18909       0.6071       0.5782
   1426.17383       0.5700       0.5937    1426.17383       0.5699       0.5938
   1426.15857       0.5663       0.5314    1426.15857       0.5662       0.5315
   1426.14331       0.4875       0.6626    1426.14331       0.4874       0.6627
   1426.12805       0.6049       0.4727    1426.12805       0.6048       0.4728
   1426.11279       0.5228       0.6263    1426.11279       0.5227       0.6264
   1426.09753       0.4416       0.5628    1426.09753       0.4415       0.5629
   1426.08228       0.6003       0.5808    1426.08228       0.6002       0.5808
   1426.06702       0.5787       0.5560    1426.06702       0.5786       0.5560
   1426.05176       0.5455       0.5532    1426.05176       0.5454       0.5533
   1426.03650       0.5232       0.5278    1426.03650       0.5231       0.5278
   1426.02124       0.5527       0.5151    1426.02124       0.5526       0.5152
   1426.00598       0.5160       0.5940    1426.00598       0.5159       0.5941
   1425.99072       0.5718       0.5555    1425.99072       0.5717       0.5556
   1425.97546       0.4786       0.6353    1425.97546       0.4785       0.6354
   1425.96021       0.5997       0.5938    1425.96021       0.5996       0.5939
   1425.94495       0.5335       0.5645    1425.94495       0.5334       0.5646
   1425.92969       0.5406       0.6402    1425.92969       0.5405       0.6403
   1425.91443       0.5248       0.6090    1425.91443       0.5248       0.6091
   1425.89917       0.4530       0.6188    1425.89917       0.4529       0.6189
   1425.88391       0.5186       0.5712    1425.88391       0.5185       0.5713
   1425.86865       0.5646       0.5309    1425.86865       0.5645       0.5310
   1425.85339       0.5174       0.5363    1425.85339       0.5173       0.5363
   1425.83813       0.5901       0.5423    1425.83813       0.5900       0.5423
   1425.82288       0.5555       0.5639    1425.82288       0.5554       0.5640
   1425.80762       0.5930       0.6020    1425.80762       0.5929       0.6021
   1425.79236       0.6190       0.5353    1425.79236       0.6189       0.5354
   1425.77710       0.5989       0.5172    1425.77710       0.5988       0.5173
   1425.76184       0.4842       0.6239    1425.76184       0.4841       0.6239
   1425.74658       0.5221       0.5878    1425.74658       0.5220       0.5879
   1425.73132       0.5358       0.5405    1425.73132       0.5357       0.5406
   1425.71606       0.4965       0.5014    1425.71606       0.4964       0.5015
   1425.70081       0.5434       0.6461    1425.70081       0.5433       0.6462
   1425.68555       0.5023       0.6437    1425.68555       0.5022       0.6438
   1425.67029       0.4964       0.4996    1425.67029       0.4963       0.4997
   1425.65503       0.5038       0.6208    1425.65503       0.5037       0.6209
   1425.63977       0.4835       0.5666    1425.63977       0.4834       0.5667
   1425.62451       0.5402       0.6128    1425.62451       0.5401       0.6129
   1425.60925       0.4216       0.5757    1425.60925       0.4215       0.5758
   1425.59399       0.4789       0.5761    1425.59399       0.4789       0.5762
   1425.57874       0.5152       0.5346    1425.57874       0.5151       0.5347
   1425.56348       0.4844       0.5769    1425.56348       0.4843       0.5769
   1425.54822       0.5394       0.6190    1425.54822       0.5393       0.6191
   1425.53296       0.4147       0.6086    1425.53296       0.4146       0.6087
   1425.51770       0.4414       0.6091    1425.51770       0.4413       0.6092
   1425.50244       0.4803       0.6338    1425.50244       0.4802       0.6339
   1425.48718       0.5053       0.5883    1425.48718       0.5052       0.5884
   1425.47192       0.5686       0.6068    1425.47192       0.5685       0.6069
   1425.45667       0.5154       0.5373    1425.45667       0.5153       0.5373
   1425.44141       0.4985       0.5628    1425.44141       0.4984       0.5629
   1425.42615       0.4952       0.5234    1425.42615       0.4951       0.5234
   1425.41089       0.5690       0.5466    1425.41089       0.5689       0.5467
   1425.39563       0.5469       0.5520    1425.39563       0.5468       0.5521
   1425.38037       0.5305       0.5656    1425.38037       0.5304       0.5657
   1425.36511       0.5051       0.4791    1425.36511       0.5050       0.4792
   1425.34985       0.4939       0.5240    1425.34985       0.4938       0.5241
   1425.33459       0.5176       0.5676    1425.33459       0.5175       0.5677
   1425.31934       0.4503       0.5374    1425.31934       0.4502       0.5375
   1425.30408       0.5013       0.4963    1425.30408       0.5012       0.4964
   1425.28882       0.5183       0.5457    1425.28882       0.5182       0.5458
   1425.27356       0.5351       0.5444    1425.27356       0.5350       0.5445
   1425.25830       0.5001       0.5457    1425.25830       0.5000       0.5458
   1425.24304       0.4688       0.5617    1425.24304       0.4687       0.5617
   1425.22778       0.4971       0.5710    1425.22778       0.4970       0.5711
   1425.21252       0.5165       0.6077    1425.21252       0.5164       0.6078
   1425.19727       0.4902       0.5909    1425.19727       0.4901       0.5910
   1425.18201       0.4789       0.5208    1425.18201       0.4789       0.5208
   1425.16675       0.4945       0.4919    1425.16675       0.4944       0.4920
   1425.15149       0.5140       0.5197    1425.15149       0.5140       0.5197
   1425.13623       0.5167       0.5646    1425.13623       0.5166       0.5647
   1425.12097       0.4561       0.5582    1425.12097       0.4560       0.5583
   1425.10571       0.4866       0.5552    1425.10571       0.4865       0.5552
   1425.09045       0.5175       0.5574    1425.09045       0.5174       0.5575
   1425.07520       0.5256       0.6012    1425.07520       0.5255       0.6013
   1425.05994       0.4453       0.5192    1425.05994       0.4452       0.5193
   1425.04468       0.3341       0.5676    1425.04468       0.3340       0.5677
   1425.02942       0.4540       0.5092    1425.02942       0.4540       0.5092
   1425.01416       0.4594       0.5031    1425.01416       0.4593       0.5032
   1424.99890       0.4422       0.4621    1424.99890       0.4421       0.4621
   1424.98364       0.4710       0.5617    1424.98364       0.4709       0.5618
   1424.96838       0.4931       0.5217    1424.96838       0.4930       0.5218
   1424.95312       0.4840       0.5488    1424.95312       0.4839       0.5489
   1424.93787       0.5434       0.5015    1424.93787       0.5433       0.5016
   1424.92261       0.4896       0.4753    1424.92261       0.4895       0.4754
   1424.90735       0.4937       0.5306    1424.90735       0.4936       0.5307
   1424.89209       0.4412       0.5895    1424.89209       0.4411       0.5896
   1424.87683       0.5052       0.5932    1424.87683       0.5051       0.5932
   1424.86157       0.5121       0.5120    1424.86157       0.5120       0.5120
   1424.84631       0.4859       0.5958    1424.84631       0.4858       0.5959
   1424.83105       0.5161       0.5363    1424.83105       0.5160       0.5364
   1424.81580       0.4369       0.5570    1424.81580       0.4368       0.5571
   1424.80054       0.3880       0.5863    1424.80054       0.3879       0.5864
   1424.78528       0.4856       0.6274    1424.78528       0.4855       0.6274
   1424.77002       0.5016       0.5851    1424.77002       0.5015       0.5852
   1424.75476       0.5077       0.5668    1424.75476       0.5076       0.5669
   1424.73950       0.4478       0.4825    1424.73950       0.4477       0.4826
   1424.72424       0.4462       0.6620    1424.72424       0.4461       0.6621
   1424.70898       0.4608       0.6021    1424.70898       0.4608       0.6022
   1424.69373       0.4623       0.5721    1424.69373       0.4622       0.5722
   1424.67847       0.4778       0.5443    1424.67847       0.4777       0.5444
   1424.66321       0.5280       0.5935    1424.66321       0.5279       0.5936
   1424.64795       0.4793       0.5486    1424.64795       0.4792       0.5486
   1424.63269       0.5433       0.5769    1424.63269       0.5432       0.5770
   1424.61743       0.4456       0.4581    1424.61743       0.4455       0.4581
   1424.60217       0.5400       0.5684    1424.60217       0.5399       0.5685
   1424.58691       0.4890       0.5427    1424.58691       0.4889       0.5428
   1424.57166       0.5193       0.5528    1424.57166       0.5192       0.5529
   1424.55640       0.4703       0.6590    1424.55640       0.4703       0.6591
   1424.54114       0.4344       0.5828    1424.54114       0.4343       0.5828
   1424.52588       0.4147       0.6030    1424.52588       0.4146       0.6031
   1424.51062       0.4262       0.5553    1424.51062       0.4261       0.5554
   1424.49536       0.4491       0.5144    1424.49536       0.4490       0.5145
   1424.48010       0.4209       0.5896    1424.48010       0.4208       0.5897
   1424.46484       0.4327       0.5655    1424.46484       0.4326       0.5656
   1424.44958       0.4676       0.5007    1424.44958       0.4675       0.5008
   1424.43433       0.5047       0.5164    1424.43433       0.5046       0.5165
   1424.41907       0.3894       0.6080    1424.41907       0.3893       0.6081
   1424.40381       0.4070       0.5945    1424.40381       0.4069       0.5946
   1424.38855       0.4928       0.5109    1424.38855       0.4927       0.5110
   1424.37329       0.4429       0.5453    1424.37329       0.4428       0.5454
   1424.35803       0.4223       0.5828    1424.35803       0.4222       0.5829
   1424.34277       0.3973       0.5019    1424.34277       0.3972       0.5020
   1424.32751       0.4521       0.6327    1424.32751       0.4520       0.6328
   1424.31226       0.5358       0.5376    1424.31226       0.5357       0.5376
   1424.29700       0.4404       0.6033    1424.29700       0.4403       0.6034
   1424.28174       0.4124       0.5157    1424.28174       0.4123       0.5157
   1424.26648       0.4139       0.4978    1424.26648       0.4138       0.4979
   1424.25122       0.3464       0.5412    1424.25122       0.3464       0.5412
   1424.23596       0.3950       0.5600    1424.23596       0.3949       0.5601
   1424.22070       0.3787       0.5595    1424.22070       0.3786       0.5596
   1424.20544       0.3615       0.5868    1424.20544       0.3614       0.5869
   1424.19019       0.4091       0.5368    1424.19019       0.4090       0.5368
   1424.17493       0.3701       0.5793    1424.17493       0.3700       0.5794
   1424.15967       0.3487       0.5540    1424.15967       0.3486       0.5541
   1424.14441       0.4036       0.6051    1424.14441       0.4035       0.6052
   1424.12915       0.3986       0.5904    1424.12915       0.3985       0.5904
   1424.11389       0.3698       0.5262    1424.11389       0.3697       0.5263
   1424.09863       0.3338       0.5237    1424.09863       0.3338       0.5237
   1424.08337       0.4093       0.5375    1424.08337       0.4093       0.5375
   1424.06812       0.4111       0.5363    1424.06812       0.4110       0.5364
   1424.05286       0.3551       0.5653    1424.05286       0.3550       0.5654
   1424.03760       0.4941       0.5207    1424.03760       0.4940       0.5207
   1424.02234       0.4450       0.4949    1424.02234       0.4449       0.4950
   1424.00708       0.3557       0.5371    1424.00708       0.3556       0.5371
   1423.99182       0.4116       0.5124    1423.99182       0.4115       0.5124
   1423.97656       0.3928       0.5231    1423.97656       0.3927       0.5232
   1423.96130       0.3913       0.5650    1423.96130       0.3912       0.5651
   1423.94604       0.4071       0.5333    1423.94604       0.4070       0.5334
   1423.93079       0.3516       0.5174    1423.93079       0.3516       0.5175
   1423.91553       0.3396       0.5087    1423.91553       0.3395       0.5088
   1423.90027       0.4386       0.4931    1423.90027       0.4386       0.4932
   1423.88501       0.4568       0.4901    1423.88501       0.4567       0.4902
   1423.86975       0.3956       0.4952    1423.86975       0.3955       0.4953
   1423.85449       0.4211       0.5269    1423.85449       0.4210       0.5269
   1423.83923       0.4563       0.5235    1423.83923       0.4562       0.5236
   1423.82397       0.5040       0.5217    1423.82397       0.5039       0.5218
   1423.80872       0.4123       0.5664    1423.80872       0.4122       0.5665
   1423.79346       0.3749       0.6393    1423.79346       0.3748       0.6394
   1423.77820       0.4371       0.5250    1423.77820       0.4370       0.5250
   1423.76294       0.4286       0.5104    1423.76294       0.4285       0.5105
   1423.74768       0.3905       0.4636    1423.74768       0.3904       0.4637
   1423.73242       0.4446       0.4706    1423.73242       0.4445       0.4706
   1423.71716       0.4115       0.4953    1423.71716       0.4114       0.4954
   1423.70190       0.4685       0.5103    1423.70190       0.4685       0.5104
   1423.68665       0.4859       0.4449    1423.68665       0.4858       0.4450
   1423.67139       0.4889       0.5554    1423.67139       0.4888       0.5554
   1423.65613       0.3874       0.4188    1423.65613       0.3873       0.4189
   1423.64087       0.4126       0.5363    1423.64087       0.4126       0.5363
   1423.62561       0.3693       0.5477    1423.62561       0.3692       0.5478
   1423.61035       0.4313       0.5698    1423.61035       0.4312       0.5699
   1423.59509       0.3692       0.4713    1423.59509       0.3691       0.4713
   1423.57983       0.3599       0.4816    1423.57983       0.3598       0.4817
   1423.56458       0.4007       0.5471    1423.56458       0.4007       0.5472
   1423.54932       0.3515       0.5673    1423.54932       0.3514       0.5674
   1423.53406       0.4732       0.4486    1423.53406       0.4731       0.4486
   1423.51880       0.4093       0.5485    1423.51880       0.4092       0.5486
   1423.50354       0.4372       0.4638    1423.50354       0.4372       0.4639
   1423.48828       0.4149       0.6067    1423.48828       0.4148       0.6067
   1423.47302       0.4085       0.5064    1423.47302       0.4084       0.5064
   1423.45776       0.3944       0.4844    1423.45776       0.3943       0.4845
   1423.44250       0.4027       0.6301    1423.44250       0.4027       0.6302
   1423.42725       0.4269       0.6041    1423.42725       0.4268       0.6042
   1423.41199       0.3861       0.4994    1423.41199       0.3860       0.4995
   1423.39673       0.4436       0.4921    1423.39673       0.4435       0.4921
   1423.38147       0.3790       0.5407    1423.38147       0.3789       0.5408
   1423.36621       0.5048       0.6467    1423.36621       0.5047       0.6468
   1423.35095       0.5194       0.5100    1423.35095       0.5193       0.5100
   1423.33569       0.4981       0.6084    1423.33569       0.4980       0.6085
   1423.32043       0.5502       0.6418    1423.32043       0.5501       0.6419
   1423.30518       0.6055       0.7094    1423.30518       0.6054       0.7095
   1423.28992       0.7241       0.8546    1423.28992       0.7239       0.8547
   1423.27466       0.9291       1.0318    1423.27466       0.9289       1.0320
   1423.25940       1.1426       1.2978    1423.25940       1.1424       1.2980
   1423.24414       1.4826       1.5214    1423.24414       1.4823       1.5216
   1423.22888       1.6639       1.6894    1423.22888       1.6635       1.6897
   1423.21362       1.9050       1.9169    1423.21362       1.9046       1.9172
   1423.19836       2.1051       2.1475    1423.19836       2.1047       2.1477
   1423.18311       2.5120       2.4739    1423.18311       2.5115       2.4742
   1423.16785       2.8971       2.8294    1423.16785       2.8966       2.8298
   1423.15259       3.2807       3.2126    1423.15259       3.2801       3.2130
   1423.13733       3.5799       3.4993    1423.13733       3.5792       3.4998
   1423.12207       3.9430       3.7707    1423.12207       3.9423       3.7712
   1423.10681       4.2293       4.1260    1423.10681       4.2286       4.1265
   1423.09155       4.4054       4.1979    1423.09155       4.4046       4.1985
   1423.07629       4.5461       4.4731    1423.07629       4.5453       4.4737
   1423.06104       4.4531       4.3257    1423.06104       4.4523       4.3263
   1423.04578       4.5216       4.2768    1423.04578       4.5207       4.2774
   1423.03052       4.4799       4.3362    1423.03052       4.4790       4.3368
   1423.01526       4.3846       4.4522    1423.01526       4.3838       4.4528
   1423.00000       4.3463       4.4296    1423.00000       4.3455       4.4302
   1422.98474       4.3081       4.4070    1422.98474       4.3073       4.4076
   1422.96948       3.9731       3.8455    1422.96948       3.9724       3.8460
   1422.95422       4.0020       3.8524    1422.95422       4.0012       3.8529
   1422.93896       3.8048       3.6766    1422.93896       3.8041       3.6771
   1422.92371       3.6695       3.5775    1422.92371       3.6688       3.5780
   1422.90845       3.5607       3.4709    1422.90845       3.5601       3.4714
   1422.89319       3.4753       3.3179    1422.89319       3.4747       3.3184
   1422.87793       3.2588       3.2240    1422.87793       3.2582       3.2245
   1422.86267       3.1496       3.0535    1422.86267       3.1491       3.0539
   1422.84741       3.0898       2.9009    1422.84741       3.0893       2.9013
   1422.83215       2.9203       2.8419    1422.83215       2.9198       2.8423
   1422.81689       2.7830       2.8014    1422.81689       2.7825       2.8018
   1422.80164       2.9147       2.8286    1422.80164       2.9141       2.8290
   1422.78638       2.8932       2.7884    1422.78638       2.8927       2.7888
   1422.77112       2.8643       2.7711    1422.77112       2.8638       2.7715
   1422.75586       2.7375       2.7034    1422.75586       2.7370       2.7038
   1422.74060       2.7018       2.6483    1422.74060       2.7013       2.6487
   1422.72534       2.7588       2.5962    1422.72534       2.7583       2.5966
   1422.71008       2.7575       2.6711    1422.71008       2.7570       2.6715
   1422.69482       2.6854       2.6782    1422.69482       2.6849       2.6786
   1422.67957       2.8255       2.6314    1422.67957       2.8250       2.6318
   1422.66431       2.7680       2.6270    1422.66431       2.7675       2.6274
   1422.64905       2.7921       2.7048    1422.64905       2.7916       2.7052
   1422.63379       2.8340       2.6729    1422.63379       2.8334       2.6732
   1422.61853       2.7524       2.6790    1422.61853       2.7519       2.6794
   1422.60327       2.7226       2.5556    1422.60327       2.7221       2.5560
   1422.58801       2.6912       2.6462    1422.58801       2.6907       2.6465
   1422.57275       2.6559       2.5688    1422.57275       2.6554       2.5692
   1422.55750       2.6374       2.5923    1422.55750       2.6370       2.5927
   1422.54224       2.6209       2.6199    1422.54224       2.6204       2.6202
   1422.52698       2.6870       2.5773    1422.52698       2.6865       2.5777
   1422.51172       2.6084       2.5221    1422.51172       2.6079       2.5224
   1422.49646       2.5039       2.4313    1422.49646       2.5034       2.4316
   1422.48120       2.5058       2.4394    1422.48120       2.5053       2.4397
   1422.46594       2.4087       2.3768    1422.46594       2.4083       2.3772
   1422.45068       2.4556       2.4248    1422.45068       2.4552       2.4251
   1422.43542       2.3940       2.3526    1422.43542       2.3936       2.3530
   1422.42017       2.3036       2.3187    1422.42017       2.3032       2.3190
   1422.40491       2.3090       2.3193    1422.40491       2.3086       2.3196
   1422.38965       2.2458       2.1823    1422.38965       2.2454       2.1826
   1422.37439       2.1239       2.0459    1422.37439       2.1235       2.0462
   1422.35913       2.0252       1.9551    1422.35913       2.0248       1.9554
   1422.34387       1.9929       1.8647    1422.34387       1.9925       1.8650
   1422.32861       1.8237       1.8141    1422.32861       1.8234       1.8143
   1422.31335       1.8087       1.7765    1422.31335       1.8084       1.7768
   1422.29810       1.7532       1.7447    1422.29810       1.7528       1.7449
   1422.28284       1.6701       1.6732    1422.28284       1.6698       1.6734
   1422.26758       1.6518       1.5670    1422.26758       1.6515       1.5672
   1422.25232       1.4842       1.5560    1422.25232       1.4839       1.5562
   1422.23706       1.4664       1.4734    1422.23706       1.4662       1.4736
   1422.22180       1.4267       1.3520    1422.22180       1.4265       1.3522
   1422.20654       1.3785       1.3790    1422.20654       1.3782       1.3792
   1422.19128       1.3025       1.2755    1422.19128       1.3023       1.2757
   1422.17603       1.1842       1.3410    1422.17603       1.1840       1.3411
   1422.16077       1.2358       1.2046    1422.16077       1.2356       1.2048
   1422.14551       1.0632       1.1351    1422.14551       1.0630       1.1352
   1422.13025       0.9707       1.0905    1422.13025       0.9706       1.0907
   1422.11499       1.0222       1.0729    1422.11499       1.0220       1.0731
   1422.09973       0.9608       0.9547    1422.09973       0.9606       0.9548
   1422.08447       0.8931       0.8378    1422.08447       0.8929       0.8379
   1422.06921       0.8186       0.8425    1422.06921       0.8185       0.8426
   1422.05396       0.7839       0.8110    1422.05396       0.7837       0.8111
   1422.03870       0.6298       0.7473    1422.03870       0.6297       0.7474
   1422.02344       0.6440       0.7527    1422.02344       0.6439       0.7528
   1422.00818       0.6142       0.7878    1422.00818       0.6141       0.7880
   1421.99292       0.5690       0.7235    1421.99292       0.5689       0.7236
   1421.97766       0.5789       0.6696    1421.97766       0.5788       0.6697
   1421.96240       0.5088       0.6510    1421.96240       0.5087       0.6511
   1421.94714       0.5833       0.6389    1421.94714       0.5832       0.6390
   1421.93188       0.5777       0.5625    1421.93188       0.5776       0.5626
   1421.91663       0.4838       0.5406    1421.91663       0.4837       0.5407
   1421.90137       0.5524       0.6599    1421.90137       0.5523       0.6600
   1421.88611       0.5094       0.5165    1421.88611       0.5093       0.5166
   1421.87085       0.4478       0.5656    1421.87085       0.4478       0.5656
   1421.85559       0.5184       0.4475    1421.85559       0.5183       0.4476
   1421.84033       0.3900       0.5193    1421.84033       0.3900       0.5193
   1421.82507       0.5054       0.5178    1421.82507       0.5053       0.5179
   1421.80981       0.4631       0.5453    1421.80981       0.4630       0.5454
   1421.79456       0.5749       0.6107    1421.79456       0.5748       0.6107
   1421.77930       0.5032       0.5085    1421.77930       0.5031       0.5085
   1421.76404       0.5532       0.5615    1421.76404       0.5531       0.5616
   1421.74878       0.5219       0.4663    1421.74878       0.5218       0.4663
   1421.73352       0.4903       0.4668    1421.73352       0.4902       0.4668
   1421.71826       0.5230       0.4970    1421.71826       0.5229       0.4971
   1421.70300       0.5000       0.6041    1421.70300       0.5000       0.6042
   1421.68774       0.5033       0.6007    1421.68774       0.5032       0.6008
   1421.67249       0.4769       0.5167    1421.67249       0.4769       0.5168
   1421.65723       0.4859       0.5160    1421.65723       0.4858       0.5160
   1421.64197       0.4939       0.4914    1421.64197       0.4938       0.4915
   1421.62671       0.4586       0.5354    1421.62671       0.4585       0.5355
   1421.61145       0.5012       0.6180    1421.61145       0.5011       0.6180
   1421.59619       0.4310       0.5272    1421.59619       0.4309       0.5272
   1421.58093       0.5256       0.4584    1421.58093       0.5255       0.4584
   1421.56567       0.5040       0.5286    1421.56567       0.5039       0.5287
   1421.55042       0.4774       0.5218    1421.55042       0.4773       0.5219
   1421.53516       0.4956       0.5262    1421.53516       0.4956       0.5263
   1421.51990       0.4918       0.5621    1421.51990       0.4917       0.5621
   1421.50464       0.4331       0.6234    1421.50464       0.4331       0.6235
   1421.48938       0.5152       0.6506    1421.48938       0.5151       0.6507
   1421.47412       0.4846       0.5628    1421.47412       0.4846       0.5629
   1421.45886       0.4519       0.4684    1421.45886       0.4518       0.4685
   1421.44360       0.5747       0.5131    1421.44360       0.5746       0.5132
   1421.42834       0.4766       0.4493    1421.42834       0.4765       0.4493
   1421.41309       0.5117       0.5530    1421.41309       0.5116       0.5530
   1421.39783       0.4440       0.5230    1421.39783       0.4439       0.5231
   1421.38257       0.4892       0.4694    1421.38257       0.4891       0.4694
   1421.36731       0.4193       0.4890    1421.36731       0.4192       0.4891
   1421.35205       0.5798       0.5592    1421.35205       0.5797       0.5593
   1421.33679       0.4567       0.4498    1421.33679       0.4566       0.4498
   1421.32153       0.4774       0.5613    1421.32153       0.4773       0.5614
   1421.30627       0.4182       0.3815    1421.30627       0.4181       0.3816
   1421.29102       0.5115       0.5892    1421.29102       0.5114       0.5893
   1421.27576       0.4596       0.5605    1421.27576       0.4595       0.5606
   1421.26050       0.4679       0.4915    1421.26050       0.4678       0.4915
   1421.24524       0.4547       0.5200    1421.24524       0.4547       0.5201
   1421.22998       0.3685       0.4580    1421.22998       0.3685       0.4581
   1421.21472       0.4537       0.5535    1421.21472       0.4536       0.5536
   1421.19946       0.4447       0.5234    1421.19946       0.4447       0.5234
   1421.18420       0.4444       0.4462    1421.18420       0.4443       0.4463
   1421.16895       0.4413       0.4597    1421.16895       0.4412       0.4597
   1421.15369       0.4877       0.4961    1421.15369       0.4877       0.4962
   1421.13843       0.4566       0.5430    1421.13843       0.4565       0.5431
   1421.12317       0.4156       0.5307    1421.12317       0.4155       0.5308
   1421.10791       0.4748       0.5077    1421.10791       0.4747       0.5077
   1421.09265       0.4847       0.5373    1421.09265       0.4846       0.5374
   1421.07739       0.4323       0.5151    1421.07739       0.4322       0.5151
   1421.06213       0.3577       0.4731    1421.06213       0.3576       0.4731
   1421.04688       0.4157       0.5619    1421.04688       0.4157       0.5620
   1421.03162       0.3644       0.4664    1421.03162       0.3643       0.4664
   1421.01636       0.2945       0.3296    1421.01636       0.2945       0.3296
   1421.00110       0.3985       0.2870    1421.00110       0.3984       0.2870
   1420.98584       0.2048       0.3482    1420.98584       0.2047       0.3483
   1420.97058       0.2568       0.3956    1420.97058       0.2567       0.3956
   1420.95532       0.2584       0.3299    1420.95532       0.2583       0.3299
   1420.94006       0.2763       0.3830    1420.94006       0.2763       0.3830
   1420.92480       0.3275       0.4388    1420.92480       0.3274       0.4389
   1420.90955       0.3373       0.4504    1420.90955       0.3372       0.4505
   1420.89429       0.3797       0.4740    1420.89429       0.3796       0.4741
   1420.87903       0.4619       0.4140    1420.87903       0.4618       0.4140
   1420.86377       0.4508       0.6147    1420.86377       0.4507       0.6148
   1420.84851       0.5366       0.6961    1420.84851       0.5365       0.6962
   1420.83325       0.8041       0.8705    1420.83325       0.8040       0.8707
   1420.81799       1.0969       1.0757    1420.81799       1.0967       1.0758
   1420.80273       1.3168       1.4462    1420.80273       1.3166       1.4464
   1420.78748       1.6127       1.6157    1420.78748       1.6124       1.6159
   1420.77222       1.5758       1.4858    1420.77222       1.5755       1.4860
   1420.75696       1.6412       1.6668    1420.75696       1.6409       1.6670
   1420.74170       1.7589       1.7228    1420.74170       1.7586       1.7230
   1420.72644       1.6968       1.6798    1420.72644       1.6965       1.6800
   1420.71118       1.8075       1.7519    1420.71118       1.8072       1.7521
   1420.69592       1.4296       1.4311    1420.69592       1.4293       1.4313
   1420.68066       0.3855       0.1860    1420.68066       0.3854       0.1861
   1420.66541       0.1494       0.0070    1420.66541       0.1494       0.0070
   1420.65015      -0.0228      -0.0705    1420.65015      -0.0228      -0.0705
   1420.63489      -0.3806      -0.0702    1420.63489      -0.3805      -0.0703
   1420.61963      -0.6010      -0.5268    1420.61963      -0.6009      -0.5268
   1420.60437      -0.3015      -0.2130    1420.60437      -0.3014      -0.2130
   1420.58911       0.0243       0.1917    1420.58911       0.0243       0.1918
   1420.57385      -0.3566      -0.0764    1420.57385      -0.3565      -0.0764
   1420.55859      -0.5342      -0.3579    1420.55859      -0.5341      -0.3580
   1420.54333      -0.8626      -0.6029    1420.54333      -0.8624      -0.6030
   1420.52808       1.4390       1.2440    1420.52808       1.4387       1.2441
   1420.51282       5.5390       5.0863    1420.51282       5.5380       5.0870
   1420.49756       6.4201       5.9216    1420.49756       6.4190       5.9224
   1420.48230       0.5808       0.7172    1420.48230       0.5807       0.7173
   1420.46704       0.6001       0.8442    1420.46704       0.6000       0.8444
   1420.45178       0.4728       0.6051    1420.45178       0.4727       0.6052
   1420.43652       0.3489       0.5211    1420.43652       0.3488       0.5212
   1420.42126       0.3653       0.4515    1420.42126       0.3653       0.4515
   1420.40601       0.4324       0.4155    1420.40601       0.4324       0.4156
   1420.39075       0.2674       0.4023    1420.39075       0.2673       0.4024
   1420.37549       0.3176       0.4715    1420.37549       0.3175       0.4716
   1420.36023       0.2672       0.4801    1420.36023       0.2671       0.4802
   1420.34497       0.2986       0.4155    1420.34497       0.2986       0.4156
   1420.32971       0.4180       0.5108    1420.32971       0.4179       0.5108
   1420.31445       0.2528       0.5970    1420.31445       0.2527       0.5970
   1420.29919       0.4332       0.5223    1420.29919       0.4331       0.5224
   1420.28394       0.3455       0.4964    1420.28394       0.3455       0.4965
   1420.26868       0.4584       0.5124    1420.26868       0.4583       0.5124
   1420.25342       0.4756       0.6256    1420.25342       0.4755       0.6257
   1420.23816       0.4395       0.5793    1420.23816       0.4394       0.5794
   1420.22290       0.4735       0.5267    1420.22290       0.4734       0.5268
   1420.20764       0.3602       0.5675    1420.20764       0.3601       0.5675
   1420.19238       0.4244       0.6096    1420.19238       0.4244       0.6097
   1420.17712       0.3971       0.6460    1420.17712       0.3970       0.6461
   1420.16187       0.4398       0.5522    1420.16187       0.4397       0.5523
   1420.14661       0.3959       0.5494    1420.14661       0.3958       0.5495
   1420.13135       0.3791       0.5915    1420.13135       0.3790       0.5916
   1420.11609       0.4208       0.6176    1420.11609       0.4207       0.6177
   1420.10083       0.3786       0.6576    1420.10083       0.3785       0.6577
   1420.08557       0.4494       0.5929    1420.08557       0.4493       0.5930
   1420.07031       0.3835       0.5702    1420.07031       0.3834       0.5703
   1420.05505       0.3951       0.5415    1420.05505       0.3950       0.5416
   1420.03979       0.3612       0.5154    1420.03979       0.3611       0.5155
   1420.02454       0.4622       0.5440    1420.02454       0.4621       0.5440
   1420.00928       0.4160       0.5621    1420.00928       0.4159       0.5622
   1419.99402       0.3715       0.5384    1419.99402       0.3714       0.5385
   1419.97876       0.4150       0.5648    1419.97876       0.4149       0.5649
   1419.96350       0.3760       0.5385    1419.96350       0.3760       0.5386
   1419.94824       0.4715       0.6124    1419.94824       0.4715       0.6125
   1419.93298       0.3908       0.5411    1419.93298       0.3908       0.5412
   1419.91772       0.4021       0.5617    1419.91772       0.4021       0.5617
   1419.90247       0.3903       0.5442    1419.90247       0.3902       0.5443
   1419.88721       0.3865       0.5467    1419.88721       0.3864       0.5468
   1419.87195       0.3546       0.5944    1419.87195       0.3545       0.5945
   1419.85669       0.4045       0.6352    1419.85669       0.4044       0.6353
   1419.84143       0.4270       0.6271    1419.84143       0.4269       0.6272
   1419.82617       0.3138       0.6077    1419.82617       0.3137       0.6078
   1419.81091       0.3304       0.6101    1419.81091       0.3304       0.6102
   1419.79565       0.3848       0.5564    1419.79565       0.3848       0.5565
   1419.78040       0.3784       0.5251    1419.78040       0.3783       0.5252
   1419.76514       0.3743       0.5668    1419.76514       0.3742       0.5669
   1419.74988       0.3268       0.5605    1419.74988       0.3268       0.5606
   1419.73462       0.3299       0.5082    1419.73462       0.3298       0.5082
   1419.71936       0.3512       0.5357    1419.71936       0.3512       0.5358
   1419.70410       0.3077       0.5199    1419.70410       0.3077       0.5200
   1419.68884       0.3594       0.6391    1419.68884       0.3593       0.6392
   1419.67358       0.3181       0.6158    1419.67358       0.3180       0.6159
   1419.65833       0.3352       0.5491    1419.65833       0.3351       0.5492
   1419.64307       0.3324       0.7291    1419.64307       0.3323       0.7292
   1419.62781       0.3741       0.5990    1419.62781       0.3741       0.5991
   1419.61255       0.3061       0.5704    1419.61255       0.3061       0.5705
   1419.59729       0.3756       0.5963    1419.59729       0.3755       0.5964
   1419.58203       0.3791       0.6281    1419.58203       0.3790       0.6282
   1419.56677       0.3861       0.5374    1419.56677       0.3861       0.5375
   1419.55151       0.3140       0.5627    1419.55151       0.3140       0.5628
   1419.53625       0.3186       0.5643    1419.53625       0.3186       0.5644
   1419.52100       0.3941       0.5923    1419.52100       0.3940       0.5923
   1419.50574       0.3612       0.5530    1419.50574       0.3611       0.5531
   1419.49048       0.3449       0.5588    1419.49048       0.3448       0.5589
   1419.47522       0.2809       0.6288    1419.47522       0.2809       0.6289
   1419.45996       0.3331       0.5416    1419.45996       0.3330       0.5417
   1419.44470       0.3249       0.6231    1419.44470       0.3249       0.6232
   1419.42944       0.2236       0.6428    1419.42944       0.2236       0.6429
   1419.41418       0.3213       0.6144    1419.41418       0.3212       0.6145
   1419.39893       0.3195       0.5422    1419.39893       0.3194       0.5422
   1419.38367       0.2906       0.5490    1419.38367       0.2906       0.5490
   1419.36841       0.3381       0.6788    1419.36841       0.3381       0.6789
   1419.35315       0.3057       0.6147    1419.35315       0.3056       0.6148
   1419.33789       0.2807       0.6195    1419.33789       0.2806       0.6196
   1419.32263       0.3741       0.4959    1419.32263       0.3741       0.4960
   1419.30737       0.3458       0.5583    1419.30737       0.3458       0.5584
   1419.29211       0.3178       0.6334    1419.29211       0.3177       0.6334
   1419.27686       0.3352       0.6052    1419.27686       0.3351       0.6053
   1419.26160       0.2943       0.5964    1419.26160       0.2942       0.5965
   1419.24634       0.3591       0.5580    1419.24634       0.3590       0.5580
   1419.23108       0.3038       0.4707    1419.23108       0.3038       0.4708
   1419.21582       0.2389       0.6324    1419.21582       0.2389       0.6324
   1419.20056       0.2786       0.5092    1419.20056       0.2786       0.5093
   1419.18530       0.2642       0.5550    1419.18530       0.2641       0.5551
   1419.17004       0.2600       0.5210    1419.17004       0.2599       0.5211
   1419.15479       0.2863       0.5589    1419.15479       0.2863       0.5589
   1419.13953       0.2997       0.5763    1419.13953       0.2997       0.5764
   1419.12427       0.2192       0.4782    1419.12427       0.2192       0.4782
   1419.10901       0.2377       0.6100    1419.10901       0.2377       0.6101
   1419.09375       0.2891       0.5458    1419.09375       0.2891       0.5459
   1419.07849       0.2974       0.6940    1419.07849       0.2974       0.6941
   1419.06323       0.3031       0.5753    1419.06323       0.3030       0.5754
   1419.04797       0.2784       0.4831    1419.04797       0.2784       0.4832
   1419.03271       0.2914       0.5391    1419.03271       0.2913       0.5392
   1419.01746       0.2700       0.6075    1419.01746       0.2699       0.6076
   1419.00220       0.1958       0.5102    1419.00220       0.1958       0.5102
   1418.98694       0.2745       0.5452    1418.98694       0.2745       0.5453
   1418.97168       0.2095       0.4452    1418.97168       0.2095       0.4452
   1418.95642       0.2931       0.6307    1418.95642       0.2930       0.6308
   1418.94116       0.3316       0.5599    1418.94116       0.3315       0.5600
   1418.92590       0.3682       0.5359    1418.92590       0.3681       0.5360
   1418.91064       0.3287       0.5926    1418.91064       0.3286       0.5927
   1418.89539       0.2517       0.5991    1418.89539       0.2516       0.5992
   1418.88013       0.2870       0.4703    1418.88013       0.2869       0.4704
   1418.86487       0.3061       0.4899    1418.86487       0.3060       0.4899
   1418.84961       0.2063       0.5752    1418.84961       0.2063       0.5753
   1418.83435       0.2204       0.5582    1418.83435       0.2203       0.5583
   1418.81909       0.2526       0.5825    1418.81909       0.2526       0.5826
   1418.80383       0.3327       0.5680    1418.80383       0.3326       0.5680
   1418.78857       0.3152       0.6208    1418.78857       0.3151       0.6209
   1418.77332       0.3380       0.5721    1418.77332       0.3379       0.5722
   1418.75806       0.3213       0.5431    1418.75806       0.3212       0.5431
   1418.74280       0.2824       0.5485    1418.74280       0.2824       0.5485
   1418.72754       0.3442       0.5000    1418.72754       0.3441       0.5001
   1418.71228       0.3056       0.6067    1418.71228       0.3056       0.6067
   1418.69702       0.3186       0.5786    1418.69702       0.3185       0.5787
   1418.68176       0.2989       0.5632    1418.68176       0.2989       0.5633
   1418.66650       0.3041       0.5527    1418.66650       0.3040       0.5528
   1418.65125       0.2803       0.5458    1418.65125       0.2803       0.5459
   1418.63599       0.2869       0.5189    1418.63599       0.2869       0.5189
   1418.62073       0.2421       0.5754    1418.62073       0.2420       0.5755
   1418.60547       0.2176       0.5716    1418.60547       0.2176       0.5716
   1418.59021       0.1792       0.5461    1418.59021       0.1791       0.5462
   1418.57495       0.2946       0.5253    1418.57495       0.2946       0.5254
   1418.55969       0.2325       0.5217    1418.55969       0.2325       0.5218
   1418.54443       0.3532       0.4612    1418.54443       0.3531       0.4613
   1418.52917       0.3243       0.4831    1418.52917       0.3243       0.4832
   1418.51392       0.2573       0.5871    1418.51392       0.2573       0.5872
   1418.49866       0.2039       0.5462    1418.49866       0.2038       0.5462
   1418.48340       0.3124       0.5407    1418.48340       0.3123       0.5408
   1418.46814       0.2261       0.4611    1418.46814       0.2260       0.4612
   1418.45288       0.3010       0.4902    1418.45288       0.3010       0.4903
   1418.43762       0.2491       0.6120    1418.43762       0.2490       0.6121
   1418.42236       0.1903       0.4911    1418.42236       0.1903       0.4912
   1418.40710       0.1812       0.5497    1418.40710       0.1812       0.5498
   1418.39185       0.2690       0.5156    1418.39185       0.2690       0.5157
   1418.37659       0.2449       0.4554    1418.37659       0.2449       0.4555
   1418.36133       0.1964       0.5242    1418.36133       0.1963       0.5243
   1418.34607       0.1558       0.5852    1418.34607       0.1558       0.5853
   1418.33081       0.2082       0.5889    1418.33081       0.2082       0.5890
   1418.31555       0.2368       0.5480    1418.31555       0.2367       0.5481
   1418.30029       0.2681       0.4504    1418.30029       0.2680       0.4505
   1418.28503       0.2786       0.4737    1418.28503       0.2786       0.4738
   1418.26978       0.2055       0.5751    1418.26978       0.2055       0.5752
   1418.25452       0.2704       0.5435    1418.25452       0.2704       0.5436
   1418.23926       0.2391       0.4903    1418.23926       0.2391       0.4903
   1418.22400       0.2269       0.4142    1418.22400       0.2268       0.4143
   1418.20874       0.1804       0.4728    1418.20874       0.1804       0.4728
   1418.19348       0.1854       0.6121    1418.19348       0.1853       0.6122
   1418.17822       0.1306       0.5538    1418.17822       0.1306       0.5539
   1418.16296       0.1388       0.5377    1418.16296       0.1388       0.5377
   1418.14771       0.1067       0.5526    1418.14771       0.1066       0.5527
   1418.13245       0.1363       0.4394    1418.13245       0.1363       0.4395
   1418.11719       0.2046       0.4831    1418.11719       0.2045       0.4831
   1418.10193       0.1317       0.4701    1418.10193       0.1317       0.4702
   1418.08667       0.1604       0.4274    1418.08667       0.1604       0.4275
   1418.07141       0.1967       0.5037    1418.07141       0.1966       0.5038
   1418.05615       0.1942       0.4964    1418.05615       0.1941       0.4965
   1418.04089       0.1707       0.5082    1418.04089       0.1707       0.5083
   1418.02563       0.2440       0.4774    1418.02563       0.2439       0.4774
   1418.01038       0.1854       0.5012    1418.01038       0.1853       0.5013
   1417.99512       0.1167       0.4581    1417.99512       0.1166       0.4582
   1417.97986       0.1449       0.4796    1417.97986       0.1449       0.4796
   1417.96460       0.2432       0.5189    1417.96460       0.2431       0.5190
   1417.94934       0.1619       0.5328    1417.94934       0.1618       0.5329
   1417.93408       0.1301       0.4657    1417.93408       0.1301       0.4658
   1417.91882       0.2018       0.4730    1417.91882       0.2018       0.4730
   1417.90356       0.2304       0.5167    1417.90356       0.2303       0.5168
   1417.88831       0.1850       0.4954    1417.88831       0.1850       0.4955
   1417.87305       0.1874       0.4999    1417.87305       0.1874       0.4999
   1417.85779       0.2039       0.5490    1417.85779       0.2039       0.5491
   1417.84253       0.2006       0.5232    1417.84253       0.2006       0.5233
   1417.82727       0.2127       0.4840    1417.82727       0.2127       0.4841
   1417.81201       0.2377       0.5044    1417.81201       0.2376       0.5045
   1417.79675       0.2730       0.5175    1417.79675       0.2729       0.5176
   1417.78149       0.2551       0.4813    1417.78149       0.2551       0.4813
   1417.76624       0.2112       0.4991    1417.76624       0.2112       0.4992
   1417.75098       0.1899       0.5189    1417.75098       0.1898       0.5189
   1417.73572       0.2055       0.4586    1417.73572       0.2055       0.4587
   1417.72046       0.2325       0.4657    1417.72046       0.2324       0.4658
   1417.70520       0.2547       0.5120    1417.70520       0.2547       0.5120
   1417.68994       0.1987       0.5217    1417.68994       0.1987       0.5218
   1417.67468       0.2607       0.4924    1417.67468       0.2606       0.4925
   1417.65942       0.2459       0.5323    1417.65942       0.2459       0.5324
   1417.64417       0.2200       0.4084    1417.64417       0.2199       0.4085
   1417.62891       0.2999       0.4487    1417.62891       0.2998       0.4487
   1417.61365       0.2742       0.4897    1417.61365       0.2741       0.4898
   1417.59839       0.1772       0.4935    1417.59839       0.1772       0.4936
   1417.58313       0.2228       0.4365    1417.58313       0.2227       0.4366
   1417.56787       0.2129       0.4752    1417.56787       0.2129       0.4753
   1417.55261       0.2612       0.5216    1417.55261       0.2612       0.5217
   1417.53735       0.1689       0.5089    1417.53735       0.1689       0.5090
   1417.52209       0.3034       0.4762    1417.52209       0.3033       0.4763
   1417.50684       0.1517       0.4422    1417.50684       0.1516       0.4423
   1417.49158       0.1066       0.4385    1417.49158       0.1066       0.4386
   1417.47632       0.2275       0.4206    1417.47632       0.2274       0.4206
   1417.46106       0.2374       0.4970    1417.46106       0.2374       0.4971
   1417.44580       0.1724       0.5394    1417.44580       0.1724       0.5395
   1417.43054       0.2431       0.5082    1417.43054       0.2431       0.5083
   1417.41528       0.1903       0.4277    1417.41528       0.1903       0.4278
   1417.40002       0.2996       0.4093    1417.40002       0.2996       0.4094
   1417.38477       0.2327       0.5214    1417.38477       0.2326       0.5214
   1417.36951       0.2645       0.4242    1417.36951       0.2645       0.4242
   1417.35425       0.2020       0.4240    1417.35425       0.2019       0.4240
   1417.33899       0.2682       0.4440    1417.33899       0.2682       0.4440
   1417.32373       0.2222       0.4927    1417.32373       0.2222       0.4928
   1417.30847       0.1853       0.4654    1417.30847       0.1852       0.4655
   1417.29321       0.1990       0.3858    1417.29321       0.1990       0.3858
   1417.27795       0.2553       0.3914    1417.27795       0.2553       0.3915
   1417.26270       0.2666       0.3514    1417.26270       0.2666       0.3515
   1417.24744       0.2117       0.4705    1417.24744       0.2116       0.4706
   1417.23218       0.2850       0.4926    1417.23218       0.2850       0.4927
   1417.21692       0.3297       0.5157    1417.21692       0.3296       0.5158
   1417.20166       0.2444       0.3777    1417.20166       0.2444       0.3778
   1417.18640       0.2956       0.3898    1417.18640       0.2955       0.3898
   1417.17114       0.1777       0.4642    1417.17114       0.1777       0.4642
   1417.15588       0.3254       0.4440    1417.15588       0.3254       0.4441
   1417.14062       0.2130       0.5235    1417.14062       0.2130       0.5236
   1417.12537       0.2745       0.3997    1417.12537       0.2744       0.3997
   1417.11011       0.2732       0.5032    1417.11011       0.2731       0.5033
   1417.09485       0.2785       0.4462    1417.09485       0.2785       0.4463
   1417.07959       0.3092       0.4374    1417.07959       0.3092       0.4374
   1417.06433       0.2669       0.4259    1417.06433       0.2668       0.4260
   1417.04907       0.2806       0.3690    1417.04907       0.2805       0.3691
   1417.03381       0.2279       0.4385    1417.03381       0.2278       0.4386
   1417.01855       0.1918       0.3631    1417.01855       0.1918       0.3632
   1417.00330       0.3556       0.4405    1417.00330       0.3555       0.4405
   1416.98804       0.2153       0.4219    1416.98804       0.2153       0.4220
   1416.97278       0.2621       0.3291    1416.97278       0.2621       0.3292
   1416.95752       0.3118       0.4616    1416.95752       0.3118       0.4616
   1416.94226       0.3260       0.4210    1416.94226       0.3260       0.4211
   1416.92700       0.2632       0.4052    1416.92700       0.2632       0.4053
   1416.91174       0.2804       0.5054    1416.91174       0.2803       0.5054
   1416.89648       0.3011       0.3620    1416.89648       0.3010       0.3621
   1416.88123       0.3724       0.3248    1416.88123       0.3723       0.3248
   1416.86597       0.3173       0.4434    1416.86597       0.3173       0.4434
   1416.85071       0.2515       0.3210    1416.85071       0.2514       0.3210
   1416.83545       0.2771       0.3333    1416.83545       0.2771       0.3334
   1416.82019       0.3352       0.4269    1416.82019       0.3351       0.4270
   1416.80493       0.3096       0.3925    1416.80493       0.3095       0.3925
   1416.78967       0.3009       0.4706    1416.78967       0.3009       0.4706
   1416.77441       0.4059       0.3810    1416.77441       0.4058       0.3810
   1416.75916       0.3168       0.5055    1416.75916       0.3167       0.5056
   1416.74390       0.3365       0.3323    1416.74390       0.3364       0.3324
   1416.72864       0.2934       0.3815    1416.72864       0.2934       0.3815
   1416.71338       0.4127       0.3812    1416.71338       0.4127       0.3812
   1416.69812       0.2335       0.3132    1416.69812       0.2335       0.3133
   1416.68286       0.3365       0.3464    1416.68286       0.3364       0.3465
   1416.66760       0.3074       0.3557    1416.66760       0.3073       0.3557
   1416.65234       0.4390       0.4035    1416.65234       0.4389       0.4036
   1416.63708       0.3431       0.4123    1416.63708       0.3430       0.4123
   1416.62183       0.3578       0.3719    1416.62183       0.3578       0.3719
   1416.60657       0.3032       0.3807    1416.60657       0.3032       0.3807
   1416.59131       0.3370       0.4161    1416.59131       0.3370       0.4162
   1416.57605       0.3859       0.4095    1416.57605       0.3858       0.4095
   1416.56079       0.3495       0.3821    1416.56079       0.3494       0.3822
   1416.54553       0.3445       0.3935    1416.54553       0.3444       0.3935
   1416.53027       0.3103       0.4245    1416.53027       0.3102       0.4246
   1416.51501       0.4313       0.3513    1416.51501       0.4312       0.3513
   1416.49976       0.3853       0.3052    1416.49976       0.3853       0.3052
   1416.48450       0.4274       0.3761    1416.48450       0.4273       0.3762
   1416.46924       0.3241       0.3633    1416.46924       0.3240       0.3634
   1416.45398       0.3587       0.4473    1416.45398       0.3587       0.4473
   1416.43872       0.3972       0.3046    1416.43872       0.3971       0.3047
   1416.42346       0.4543       0.3019    1416.42346       0.4542       0.3020
   1416.40820       0.4772       0.4191    1416.40820       0.4772       0.4191
   1416.39294       0.4354       0.3160    1416.39294       0.4353       0.3160
   1416.37769       0.4513       0.3405    1416.37769       0.4512       0.3406
   1416.36243       0.4306       0.4197    1416.36243       0.4305       0.4198
   1416.34717       0.4406       0.2771    1416.34717       0.4405       0.2772
   1416.33191       0.4702       0.3947    1416.33191       0.4701       0.3948
   1416.31665       0.5416       0.3264    1416.31665       0.5415       0.3265
   1416.30139       0.4157       0.4578    1416.30139       0.4156       0.4578
   1416.28613       0.4612       0.2892    1416.28613       0.4611       0.2892
   1416.27087       0.4134       0.4134    1416.27087       0.4133       0.4135
   1416.25562       0.3709       0.5295    1416.25562       0.3708       0.5295
   1416.24036       0.4353       0.3029    1416.24036       0.4352       0.3029
   1416.22510       0.5022       0.3483    1416.22510       0.5021       0.3483
   1416.20984       0.3536       0.4404    1416.20984       0.3536       0.4404
   1416.19458       0.4094       0.3858    1416.19458       0.4093       0.3859
   1416.17932       0.4717       0.3854    1416.17932       0.4716       0.3855
   1416.16406       0.3847       0.3830    1416.16406       0.3847       0.3831
   1416.14880       0.4488       0.4341    1416.14880       0.4487       0.4341
   1416.13354       0.3366       0.3077    1416.13354       0.3366       0.3077
   1416.11829       0.3833       0.4451    1416.11829       0.3833       0.4452
   1416.10303       0.4251       0.3435    1416.10303       0.4251       0.3436
   1416.08777       0.4487       0.3467    1416.08777       0.4486       0.3467
   1416.07251       0.3385       0.3635    1416.07251       0.3384       0.3635
   1416.05725       0.3665       0.4114    1416.05725       0.3664       0.4115
   1416.04199       0.4741       0.3568    1416.04199       0.4740       0.3569
   1416.02673       0.4552       0.4053    1416.02673       0.4551       0.4054
   1416.01147       0.4658       0.3904    1416.01147       0.4657       0.3905
   1415.99622       0.4376       0.4204    1415.99622       0.4375       0.4204
