#     FILENAME=Skynet_58946_M31_5kpc_radius_44923_54527.A.onoff.cal.txt
#     BASENAME=Skynet_58946_M31_5kpc_radius_44923_54527
#      CONTROL=SKYNET
#     PROJCODE=Skynet_58946_M31_5kpc_radius_44923
#     DATAROOT=/raid/scratch/cyborg/SkynetData
#      DATADIR=/raid/scratch/cyborg
#     DATADIR2=/raid/scratch/cyborg/SkynetData/Skynet_58946_M31_5kpc_radius_44
#     SCANNAME=2020_03_09_19
#     SRC_NAME=M31_5kpc_radius
#     OBSERVER=unioncollege_21317
#     DATE_OBS=2020-04-07T20:05:17.430
#        OBSID=44923
#      SCANNUM=54527
#          MJD=58946.8370073
#          UTC=72317
#     SCANTYPE=onoff
#     DATAMODE=HIRES
#     RECEIVER=Rx1_2
#      OBSFREQ=1395.0000
# Actual_FREQ1=1423.0000,
# Actual_FREQ2=1423.0000
#    LO1Tuning=6873.0000
#     RFFILTER=1355_1435
#        OBSBW=-15.6250
#     EFFBANDW=15.6250
#        NCHAN=1024
#    STARTCHAN=51
#     STOPCHAN=972
#         TINT=0.3000
#         TBIN=0.00419430
#       ACCLEN=2048 
#     DURATION=171.00
#     EXPOSURE=125.38
#        FOCUS=36.895
#       RA,DEC=00:41:44.40, 40:59:10.82
#      RA(deg)=9.04315
#     DEC(deg)=40.98674
#   WIDTH(deg)=2.0769x0.0183
#    AZIM(deg)=289.5371
#    ELEV(deg)=52.5489
#     COORDREF=RA_DEC_
#         HREF=10.3696
#         VREF=40.9866
#      RADESYS=FK5
#       OFFSYS=RADEC
#      EQUINOX=2000.00
#     IFATTENS=19.00, 4.00
#   BALANCELEV=1.200 
#   POWER_XLYR=[1.27, 1.07] 
#       VELDEF=RADI-OBS 
#     VELOCITY=0.000 
#         NPOL=2 
#      POLMODE=Linear 
#      POLTYPE=XXYY 
#      WARNING=None 
#     NOISECAL=HI 
#       PRECAL=2 
#      POSTCAL=2 
#     CRYOTEMP=15 
#      BOXTEMP=36 
#         TSYS=XX1:32.92, YY1:34.05
#         TSYS=XX2:32.91, YY2:34.06
#         TCAL=XX1:9.18, YY1:10.14
#         TCAL=XX2:9.18, YY2:10.14
# Calibrated spectra: Tsys*(ON-OFF)/OFF 
#                
#                
#Freq1(MHz)         XX1          YY1   Freq2(MHz)       XX2         YY2 
   1430.03430       0.2174       0.4207    1430.03430       0.2174       0.4207
   1430.01904       0.2108       0.3853    1430.01904       0.2108       0.3854
   1430.00378       0.1640       0.4125    1430.00378       0.1640       0.4126
   1429.98853       0.1618       0.4204    1429.98853       0.1618       0.4204
   1429.97327       0.2316       0.3612    1429.97327       0.2315       0.3612
   1429.95801       0.2719       0.4326    1429.95801       0.2719       0.4326
   1429.94275       0.2676       0.4549    1429.94275       0.2676       0.4550
   1429.92749       0.1351       0.4228    1429.92749       0.1350       0.4229
   1429.91223       0.2224       0.3934    1429.91223       0.2224       0.3934
   1429.89697       0.1763       0.4269    1429.89697       0.1763       0.4269
   1429.88171       0.2221       0.3333    1429.88171       0.2221       0.3334
   1429.86646       0.3264       0.3695    1429.86646       0.3264       0.3695
   1429.85120       0.2022       0.3875    1429.85120       0.2022       0.3875
   1429.83594       0.2553       0.3954    1429.83594       0.2553       0.3954
   1429.82068       0.1886       0.3996    1429.82068       0.1886       0.3996
   1429.80542       0.2321       0.3699    1429.80542       0.2321       0.3699
   1429.79016       0.1597       0.3559    1429.79016       0.1597       0.3559
   1429.77490       0.2848       0.4177    1429.77490       0.2848       0.4178
   1429.75964       0.2260       0.4480    1429.75964       0.2259       0.4480
   1429.74438       0.2391       0.4033    1429.74438       0.2391       0.4033
   1429.72913       0.2196       0.3977    1429.72913       0.2196       0.3977
   1429.71387       0.2115       0.3078    1429.71387       0.2115       0.3078
   1429.69861       0.1598       0.2840    1429.69861       0.1598       0.2840
   1429.68335       0.2435       0.3861    1429.68335       0.2435       0.3862
   1429.66809       0.2523       0.3388    1429.66809       0.2523       0.3389
   1429.65283       0.2375       0.4383    1429.65283       0.2375       0.4383
   1429.63757       0.1877       0.4479    1429.63757       0.1877       0.4480
   1429.62231       0.2917       0.3966    1429.62231       0.2917       0.3966
   1429.60706       0.2612       0.3904    1429.60706       0.2612       0.3904
   1429.59180       0.3163       0.3983    1429.59180       0.3162       0.3983
   1429.57654       0.2143       0.4348    1429.57654       0.2143       0.4348
   1429.56128       0.3202       0.4043    1429.56128       0.3201       0.4044
   1429.54602       0.2243       0.2848    1429.54602       0.2243       0.2849
   1429.53076       0.2614       0.3841    1429.53076       0.2614       0.3841
   1429.51550       0.2848       0.3173    1429.51550       0.2848       0.3173
   1429.50024       0.3161       0.3769    1429.50024       0.3161       0.3769
   1429.48499       0.2635       0.4323    1429.48499       0.2635       0.4324
   1429.46973       0.1930       0.3325    1429.46973       0.1930       0.3325
   1429.45447       0.2093       0.3561    1429.45447       0.2093       0.3562
   1429.43921       0.3652       0.4442    1429.43921       0.3651       0.4442
   1429.42395       0.2540       0.3708    1429.42395       0.2540       0.3708
   1429.40869       0.3230       0.4271    1429.40869       0.3230       0.4271
   1429.39343       0.2728       0.4650    1429.39343       0.2728       0.4650
   1429.37817       0.2949       0.3108    1429.37817       0.2949       0.3108
   1429.36292       0.2977       0.4385    1429.36292       0.2976       0.4386
   1429.34766       0.3290       0.4158    1429.34766       0.3289       0.4158
   1429.33240       0.2854       0.2788    1429.33240       0.2854       0.2788
   1429.31714       0.2891       0.3596    1429.31714       0.2890       0.3597
   1429.30188       0.3616       0.3410    1429.30188       0.3615       0.3410
   1429.28662       0.3050       0.4672    1429.28662       0.3049       0.4673
   1429.27136       0.3626       0.4546    1429.27136       0.3625       0.4546
   1429.25610       0.3514       0.4338    1429.25610       0.3514       0.4339
   1429.24084       0.3768       0.3706    1429.24084       0.3768       0.3706
   1429.22559       0.2920       0.3880    1429.22559       0.2920       0.3880
   1429.21033       0.4039       0.4682    1429.21033       0.4038       0.4682
   1429.19507       0.3376       0.3413    1429.19507       0.3376       0.3413
   1429.17981       0.4089       0.3637    1429.17981       0.4088       0.3638
   1429.16455       0.3890       0.3955    1429.16455       0.3890       0.3955
   1429.14929       0.4111       0.3412    1429.14929       0.4110       0.3412
   1429.13403       0.2673       0.2465    1429.13403       0.2672       0.2465
   1429.11877       0.4257       0.4573    1429.11877       0.4257       0.4573
   1429.10352       0.3355       0.3737    1429.10352       0.3354       0.3737
   1429.08826       0.3872       0.4111    1429.08826       0.3872       0.4111
   1429.07300       0.3936       0.3786    1429.07300       0.3935       0.3786
   1429.05774       0.3524       0.3665    1429.05774       0.3524       0.3665
   1429.04248       0.3420       0.3571    1429.04248       0.3419       0.3572
   1429.02722       0.2898       0.3759    1429.02722       0.2898       0.3759
   1429.01196       0.4361       0.4150    1429.01196       0.4361       0.4150
   1428.99670       0.3476       0.4375    1428.99670       0.3475       0.4376
   1428.98145       0.3161       0.3792    1428.98145       0.3160       0.3792
   1428.96619       0.3143       0.4409    1428.96619       0.3142       0.4410
   1428.95093       0.4203       0.4316    1428.95093       0.4202       0.4316
   1428.93567       0.3743       0.3904    1428.93567       0.3742       0.3904
   1428.92041       0.3789       0.3940    1428.92041       0.3788       0.3940
   1428.90515       0.3542       0.4141    1428.90515       0.3542       0.4141
   1428.88989       0.4114       0.4059    1428.88989       0.4113       0.4059
   1428.87463       0.3666       0.4476    1428.87463       0.3665       0.4476
   1428.85938       0.4100       0.3802    1428.85938       0.4100       0.3802
   1428.84412       0.4471       0.4502    1428.84412       0.4470       0.4502
   1428.82886       0.4866       0.4289    1428.82886       0.4865       0.4290
   1428.81360       0.3830       0.4568    1428.81360       0.3829       0.4568
   1428.79834       0.4586       0.4598    1428.79834       0.4585       0.4598
   1428.78308       0.4097       0.3757    1428.78308       0.4097       0.3757
   1428.76782       0.4028       0.3701    1428.76782       0.4027       0.3702
   1428.75256       0.3156       0.3644    1428.75256       0.3156       0.3645
   1428.73730       0.4397       0.4069    1428.73730       0.4396       0.4069
   1428.72205       0.4087       0.3801    1428.72205       0.4086       0.3802
   1428.70679       0.4001       0.4215    1428.70679       0.4000       0.4215
   1428.69153       0.4635       0.4265    1428.69153       0.4635       0.4265
   1428.67627       0.4211       0.4663    1428.67627       0.4211       0.4663
   1428.66101       0.4697       0.4689    1428.66101       0.4696       0.4689
   1428.64575       0.4132       0.3513    1428.64575       0.4132       0.3513
   1428.63049       0.4304       0.3664    1428.63049       0.4304       0.3665
   1428.61523       0.3947       0.4067    1428.61523       0.3946       0.4067
   1428.59998       0.4171       0.4502    1428.59998       0.4170       0.4502
   1428.58472       0.4643       0.3902    1428.58472       0.4642       0.3902
   1428.56946       0.3954       0.4724    1428.56946       0.3953       0.4725
   1428.55420       0.5073       0.3915    1428.55420       0.5072       0.3915
   1428.53894       0.4235       0.4247    1428.53894       0.4234       0.4248
   1428.52368       0.5069       0.4598    1428.52368       0.5068       0.4599
   1428.50842       0.4324       0.4138    1428.50842       0.4324       0.4138
   1428.49316       0.4907       0.4382    1428.49316       0.4906       0.4382
   1428.47791       0.4208       0.4392    1428.47791       0.4207       0.4392
   1428.46265       0.4790       0.4291    1428.46265       0.4789       0.4292
   1428.44739       0.3602       0.4120    1428.44739       0.3601       0.4121
   1428.43213       0.3918       0.4532    1428.43213       0.3917       0.4533
   1428.41687       0.4118       0.4234    1428.41687       0.4118       0.4234
   1428.40161       0.3984       0.4237    1428.40161       0.3984       0.4238
   1428.38635       0.4071       0.3697    1428.38635       0.4071       0.3697
   1428.37109       0.4308       0.4268    1428.37109       0.4307       0.4269
   1428.35583       0.4536       0.4125    1428.35583       0.4535       0.4126
   1428.34058       0.4153       0.4469    1428.34058       0.4152       0.4469
   1428.32532       0.4505       0.4147    1428.32532       0.4504       0.4147
   1428.31006       0.4801       0.4716    1428.31006       0.4800       0.4716
   1428.29480       0.4422       0.5097    1428.29480       0.4421       0.5097
   1428.27954       0.4547       0.4347    1428.27954       0.4547       0.4347
   1428.26428       0.4246       0.4250    1428.26428       0.4246       0.4250
   1428.24902       0.4593       0.4489    1428.24902       0.4592       0.4489
   1428.23376       0.4489       0.4261    1428.23376       0.4488       0.4261
   1428.21851       0.4195       0.4322    1428.21851       0.4194       0.4322
   1428.20325       0.4640       0.3896    1428.20325       0.4639       0.3896
   1428.18799       0.4458       0.4082    1428.18799       0.4457       0.4082
   1428.17273       0.4454       0.4543    1428.17273       0.4454       0.4543
   1428.15747       0.4613       0.4012    1428.15747       0.4613       0.4013
   1428.14221       0.4766       0.4393    1428.14221       0.4765       0.4394
   1428.12695       0.4487       0.4394    1428.12695       0.4486       0.4394
   1428.11169       0.4343       0.4702    1428.11169       0.4342       0.4702
   1428.09644       0.4202       0.4396    1428.09644       0.4202       0.4396
   1428.08118       0.4324       0.4581    1428.08118       0.4323       0.4582
   1428.06592       0.4537       0.4344    1428.06592       0.4536       0.4344
   1428.05066       0.4711       0.4795    1428.05066       0.4710       0.4796
   1428.03540       0.4677       0.4533    1428.03540       0.4677       0.4534
   1428.02014       0.5530       0.4284    1428.02014       0.5530       0.4284
   1428.00488       0.5008       0.4908    1428.00488       0.5007       0.4909
   1427.98962       0.5643       0.4482    1427.98962       0.5642       0.4482
   1427.97437       0.4704       0.4861    1427.97437       0.4703       0.4861
   1427.95911       0.5053       0.4645    1427.95911       0.5053       0.4645
   1427.94385       0.4624       0.4576    1427.94385       0.4624       0.4576
   1427.92859       0.5167       0.4175    1427.92859       0.5167       0.4176
   1427.91333       0.5761       0.4129    1427.91333       0.5760       0.4130
   1427.89807       0.5192       0.4186    1427.89807       0.5192       0.4186
   1427.88281       0.4887       0.3825    1427.88281       0.4886       0.3825
   1427.86755       0.5230       0.4215    1427.86755       0.5229       0.4215
   1427.85229       0.4993       0.4398    1427.85229       0.4992       0.4398
   1427.83704       0.5167       0.3986    1427.83704       0.5166       0.3986
   1427.82178       0.5266       0.4471    1427.82178       0.5266       0.4471
   1427.80652       0.5039       0.4150    1427.80652       0.5038       0.4151
   1427.79126       0.5519       0.4444    1427.79126       0.5519       0.4444
   1427.77600       0.5339       0.4306    1427.77600       0.5338       0.4306
   1427.76074       0.5196       0.3676    1427.76074       0.5195       0.3677
   1427.74548       0.5302       0.4719    1427.74548       0.5301       0.4719
   1427.73022       0.4886       0.4855    1427.73022       0.4885       0.4855
   1427.71497       0.4684       0.3749    1427.71497       0.4683       0.3750
   1427.69971       0.5710       0.4150    1427.69971       0.5709       0.4150
   1427.68445       0.5578       0.4247    1427.68445       0.5577       0.4247
   1427.66919       0.4283       0.4372    1427.66919       0.4283       0.4372
   1427.65393       0.4833       0.4972    1427.65393       0.4832       0.4972
   1427.63867       0.4258       0.4576    1427.63867       0.4258       0.4576
   1427.62341       0.5367       0.4392    1427.62341       0.5367       0.4393
   1427.60815       0.5306       0.4194    1427.60815       0.5305       0.4194
   1427.59290       0.5238       0.4480    1427.59290       0.5238       0.4480
   1427.57764       0.4738       0.4422    1427.57764       0.4737       0.4422
   1427.56238       0.5007       0.4503    1427.56238       0.5006       0.4503
   1427.54712       0.5056       0.4555    1427.54712       0.5055       0.4556
   1427.53186       0.5156       0.4553    1427.53186       0.5155       0.4553
   1427.51660       0.5378       0.4808    1427.51660       0.5377       0.4808
   1427.50134       0.5651       0.4086    1427.50134       0.5650       0.4086
   1427.48608       0.4953       0.4193    1427.48608       0.4953       0.4193
   1427.47083       0.5012       0.3666    1427.47083       0.5011       0.3666
   1427.45557       0.4584       0.4624    1427.45557       0.4583       0.4624
   1427.44031       0.5314       0.3990    1427.44031       0.5313       0.3990
   1427.42505       0.5693       0.4455    1427.42505       0.5693       0.4456
   1427.40979       0.5313       0.4507    1427.40979       0.5312       0.4507
   1427.39453       0.4795       0.4491    1427.39453       0.4794       0.4492
   1427.37927       0.5703       0.4842    1427.37927       0.5702       0.4842
   1427.36401       0.5121       0.4552    1427.36401       0.5121       0.4553
   1427.34875       0.4910       0.3761    1427.34875       0.4910       0.3762
   1427.33350       0.4846       0.4088    1427.33350       0.4845       0.4088
   1427.31824       0.5670       0.4062    1427.31824       0.5669       0.4062
   1427.30298       0.5432       0.4189    1427.30298       0.5431       0.4189
   1427.28772       0.5322       0.4130    1427.28772       0.5321       0.4131
   1427.27246       0.5104       0.4734    1427.27246       0.5103       0.4734
   1427.25720       0.4829       0.4105    1427.25720       0.4829       0.4105
   1427.24194       0.5005       0.3937    1427.24194       0.5004       0.3937
   1427.22668       0.5212       0.4469    1427.22668       0.5212       0.4469
   1427.21143       0.6073       0.4206    1427.21143       0.6072       0.4206
   1427.19617       0.6589       0.5040    1427.19617       0.6588       0.5041
   1427.18091       0.5352       0.5309    1427.18091       0.5351       0.5309
   1427.16565       0.5391       0.4896    1427.16565       0.5390       0.4896
   1427.15039       0.5476       0.4949    1427.15039       0.5475       0.4950
   1427.13513       0.5908       0.4529    1427.13513       0.5907       0.4529
   1427.11987       0.4752       0.3999    1427.11987       0.4751       0.3999
   1427.10461       0.5551       0.4441    1427.10461       0.5550       0.4442
   1427.08936       0.5373       0.4960    1427.08936       0.5372       0.4960
   1427.07410       0.5773       0.5029    1427.07410       0.5772       0.5029
   1427.05884       0.4758       0.4409    1427.05884       0.4757       0.4409
   1427.04358       0.5343       0.4198    1427.04358       0.5342       0.4199
   1427.02832       0.5608       0.5623    1427.02832       0.5607       0.5623
   1427.01306       0.5371       0.4975    1427.01306       0.5371       0.4975
   1426.99780       0.5479       0.4685    1426.99780       0.5479       0.4685
   1426.98254       0.5656       0.4532    1426.98254       0.5655       0.4532
   1426.96729       0.5322       0.4333    1426.96729       0.5321       0.4333
   1426.95203       0.5405       0.4216    1426.95203       0.5405       0.4216
   1426.93677       0.5671       0.4788    1426.93677       0.5670       0.4789
   1426.92151       0.5702       0.5006    1426.92151       0.5701       0.5006
   1426.90625       0.5104       0.4523    1426.90625       0.5103       0.4524
   1426.89099       0.5918       0.4690    1426.89099       0.5917       0.4690
   1426.87573       0.5707       0.4613    1426.87573       0.5706       0.4613
   1426.86047       0.5900       0.4743    1426.86047       0.5899       0.4743
   1426.84521       0.5382       0.5032    1426.84521       0.5381       0.5032
   1426.82996       0.5315       0.4256    1426.82996       0.5314       0.4256
   1426.81470       0.6012       0.4847    1426.81470       0.6011       0.4848
   1426.79944       0.6212       0.3881    1426.79944       0.6212       0.3881
   1426.78418       0.6007       0.4871    1426.78418       0.6006       0.4871
   1426.76892       0.5757       0.3922    1426.76892       0.5756       0.3922
   1426.75366       0.5731       0.4897    1426.75366       0.5730       0.4898
   1426.73840       0.5574       0.4548    1426.73840       0.5573       0.4548
   1426.72314       0.5381       0.4937    1426.72314       0.5380       0.4938
   1426.70789       0.5575       0.3366    1426.70789       0.5574       0.3366
   1426.69263       0.5140       0.3911    1426.69263       0.5139       0.3911
   1426.67737       0.4707       0.4473    1426.67737       0.4706       0.4474
   1426.66211       0.7321       0.4558    1426.66211       0.7320       0.4558
   1426.64685       0.5592       0.4169    1426.64685       0.5592       0.4169
   1426.63159       0.5526       0.4650    1426.63159       0.5525       0.4651
   1426.61633       0.5452       0.4181    1426.61633       0.5451       0.4182
   1426.60107       0.5970       0.4352    1426.60107       0.5969       0.4352
   1426.58582       0.5206       0.4679    1426.58582       0.5205       0.4679
   1426.57056       0.5577       0.4227    1426.57056       0.5576       0.4227
   1426.55530       0.5773       0.4866    1426.55530       0.5772       0.4866
   1426.54004       0.4621       0.4779    1426.54004       0.4621       0.4779
   1426.52478       0.6270       0.4330    1426.52478       0.6269       0.4330
   1426.50952       0.5777       0.4211    1426.50952       0.5776       0.4211
   1426.49426       0.5499       0.4718    1426.49426       0.5498       0.4719
   1426.47900       0.5214       0.4321    1426.47900       0.5213       0.4321
   1426.46375       0.5329       0.4616    1426.46375       0.5328       0.4616
   1426.44849       0.4917       0.4195    1426.44849       0.4916       0.4195
   1426.43323       0.5163       0.4317    1426.43323       0.5162       0.4317
   1426.41797       0.5530       0.4644    1426.41797       0.5529       0.4644
   1426.40271       0.5466       0.4397    1426.40271       0.5465       0.4397
   1426.38745       0.5200       0.4110    1426.38745       0.5200       0.4110
   1426.37219       0.5894       0.4881    1426.37219       0.5893       0.4881
   1426.35693       0.5320       0.3838    1426.35693       0.5320       0.3838
   1426.34167       0.5347       0.4658    1426.34167       0.5346       0.4658
   1426.32642       0.5959       0.3925    1426.32642       0.5958       0.3925
   1426.31116       0.5219       0.4616    1426.31116       0.5218       0.4616
   1426.29590       0.5686       0.4450    1426.29590       0.5685       0.4450
   1426.28064       0.5495       0.4848    1426.28064       0.5494       0.4849
   1426.26538       0.5110       0.4704    1426.26538       0.5109       0.4704
   1426.25012       0.5480       0.5097    1426.25012       0.5479       0.5098
   1426.23486       0.5328       0.5161    1426.23486       0.5327       0.5161
   1426.21960       0.5570       0.4747    1426.21960       0.5569       0.4748
   1426.20435       0.5877       0.5246    1426.20435       0.5876       0.5246
   1426.18909       0.5192       0.4828    1426.18909       0.5191       0.4829
   1426.17383       0.5686       0.4298    1426.17383       0.5685       0.4299
   1426.15857       0.6295       0.4900    1426.15857       0.6294       0.4900
   1426.14331       0.5982       0.4851    1426.14331       0.5981       0.4852
   1426.12805       0.5388       0.5156    1426.12805       0.5387       0.5156
   1426.11279       0.5357       0.5233    1426.11279       0.5356       0.5234
   1426.09753       0.5318       0.4479    1426.09753       0.5317       0.4479
   1426.08228       0.5016       0.4993    1426.08228       0.5015       0.4993
   1426.06702       0.5993       0.4142    1426.06702       0.5992       0.4142
   1426.05176       0.5659       0.4754    1426.05176       0.5658       0.4754
   1426.03650       0.5748       0.4851    1426.03650       0.5747       0.4851
   1426.02124       0.5484       0.5269    1426.02124       0.5483       0.5269
   1426.00598       0.5249       0.4143    1426.00598       0.5248       0.4143
   1425.99072       0.5229       0.4837    1425.99072       0.5228       0.4837
   1425.97546       0.5085       0.4761    1425.97546       0.5084       0.4762
   1425.96021       0.5204       0.4094    1425.96021       0.5203       0.4095
   1425.94495       0.5489       0.4307    1425.94495       0.5488       0.4308
   1425.92969       0.5448       0.4975    1425.92969       0.5447       0.4975
   1425.91443       0.6787       0.4109    1425.91443       0.6786       0.4109
   1425.89917       0.6054       0.5021    1425.89917       0.6053       0.5022
   1425.88391       0.5547       0.4494    1425.88391       0.5546       0.4494
   1425.86865       0.6254       0.4950    1425.86865       0.6253       0.4950
   1425.85339       0.5661       0.4490    1425.85339       0.5660       0.4490
   1425.83813       0.5864       0.4744    1425.83813       0.5863       0.4745
   1425.82288       0.5430       0.4235    1425.82288       0.5429       0.4236
   1425.80762       0.5451       0.4431    1425.80762       0.5450       0.4431
   1425.79236       0.5791       0.4531    1425.79236       0.5790       0.4531
   1425.77710       0.5113       0.4952    1425.77710       0.5113       0.4953
   1425.76184       0.5815       0.4586    1425.76184       0.5814       0.4586
   1425.74658       0.6295       0.5030    1425.74658       0.6294       0.5031
   1425.73132       0.5415       0.5374    1425.73132       0.5414       0.5375
   1425.71606       0.4922       0.5320    1425.71606       0.4921       0.5321
   1425.70081       0.5475       0.4035    1425.70081       0.5474       0.4035
   1425.68555       0.5778       0.5504    1425.68555       0.5777       0.5505
   1425.67029       0.6164       0.5244    1425.67029       0.6163       0.5244
   1425.65503       0.5311       0.4655    1425.65503       0.5310       0.4655
   1425.63977       0.5854       0.4701    1425.63977       0.5853       0.4701
   1425.62451       0.5687       0.5308    1425.62451       0.5686       0.5308
   1425.60925       0.5679       0.5589    1425.60925       0.5679       0.5590
   1425.59399       0.5334       0.4968    1425.59399       0.5333       0.4969
   1425.57874       0.5299       0.4630    1425.57874       0.5298       0.4630
   1425.56348       0.5575       0.5228    1425.56348       0.5574       0.5229
   1425.54822       0.5091       0.5629    1425.54822       0.5090       0.5629
   1425.53296       0.5259       0.5707    1425.53296       0.5258       0.5707
   1425.51770       0.5376       0.5360    1425.51770       0.5375       0.5360
   1425.50244       0.5762       0.5719    1425.50244       0.5761       0.5719
   1425.48718       0.5703       0.5603    1425.48718       0.5702       0.5604
   1425.47192       0.5479       0.5069    1425.47192       0.5478       0.5069
   1425.45667       0.4725       0.4883    1425.45667       0.4724       0.4883
   1425.44141       0.5205       0.5064    1425.44141       0.5204       0.5064
   1425.42615       0.5309       0.5378    1425.42615       0.5308       0.5378
   1425.41089       0.5209       0.5226    1425.41089       0.5208       0.5227
   1425.39563       0.4431       0.4886    1425.39563       0.4430       0.4887
   1425.38037       0.5279       0.5359    1425.38037       0.5278       0.5359
   1425.36511       0.5315       0.4670    1425.36511       0.5315       0.4671
   1425.34985       0.5385       0.5243    1425.34985       0.5384       0.5243
   1425.33459       0.4614       0.5028    1425.33459       0.4613       0.5029
   1425.31934       0.5102       0.5090    1425.31934       0.5101       0.5091
   1425.30408       0.4972       0.4891    1425.30408       0.4971       0.4892
   1425.28882       0.5110       0.4631    1425.28882       0.5109       0.4631
   1425.27356       0.5465       0.5320    1425.27356       0.5464       0.5320
   1425.25830       0.5446       0.4861    1425.25830       0.5445       0.4862
   1425.24304       0.5115       0.4567    1425.24304       0.5114       0.4567
   1425.22778       0.5188       0.5299    1425.22778       0.5187       0.5299
   1425.21252       0.4837       0.5258    1425.21252       0.4836       0.5259
   1425.19727       0.5407       0.4828    1425.19727       0.5407       0.4829
   1425.18201       0.5769       0.5093    1425.18201       0.5768       0.5094
   1425.16675       0.4988       0.4788    1425.16675       0.4987       0.4788
   1425.15149       0.4517       0.5113    1425.15149       0.4516       0.5113
   1425.13623       0.4373       0.4672    1425.13623       0.4372       0.4672
   1425.12097       0.5297       0.5452    1425.12097       0.5296       0.5453
   1425.10571       0.5278       0.6281    1425.10571       0.5277       0.6281
   1425.09045       0.5543       0.5284    1425.09045       0.5542       0.5284
   1425.07520       0.5419       0.4448    1425.07520       0.5418       0.4448
   1425.05994       0.5561       0.6212    1425.05994       0.5560       0.6213
   1425.04468       0.4206       0.5785    1425.04468       0.4205       0.5785
   1425.02942       0.5303       0.5233    1425.02942       0.5302       0.5234
   1425.01416       0.5058       0.4967    1425.01416       0.5057       0.4968
   1424.99890       0.4370       0.5702    1424.99890       0.4369       0.5703
   1424.98364       0.4724       0.5082    1424.98364       0.4723       0.5083
   1424.96838       0.4971       0.4990    1424.96838       0.4970       0.4990
   1424.95312       0.5562       0.5006    1424.95312       0.5562       0.5006
   1424.93787       0.5040       0.4590    1424.93787       0.5040       0.4590
   1424.92261       0.4592       0.6324    1424.92261       0.4591       0.6324
   1424.90735       0.4164       0.5397    1424.90735       0.4163       0.5398
   1424.89209       0.3930       0.5401    1424.89209       0.3930       0.5401
   1424.87683       0.4279       0.4668    1424.87683       0.4278       0.4668
   1424.86157       0.4880       0.3614    1424.86157       0.4879       0.3615
   1424.84631       0.4443       0.5254    1424.84631       0.4443       0.5255
   1424.83105       0.4343       0.5006    1424.83105       0.4342       0.5007
   1424.81580       0.4646       0.4983    1424.81580       0.4645       0.4984
   1424.80054       0.4979       0.5361    1424.80054       0.4979       0.5362
   1424.78528       0.4582       0.5237    1424.78528       0.4582       0.5237
   1424.77002       0.4769       0.5083    1424.77002       0.4768       0.5084
   1424.75476       0.4175       0.4869    1424.75476       0.4175       0.4870
   1424.73950       0.4197       0.5588    1424.73950       0.4197       0.5588
   1424.72424       0.4578       0.5365    1424.72424       0.4577       0.5365
   1424.70898       0.4893       0.5212    1424.70898       0.4892       0.5212
   1424.69373       0.4406       0.5237    1424.69373       0.4405       0.5237
   1424.67847       0.5179       0.5747    1424.67847       0.5178       0.5747
   1424.66321       0.4218       0.5562    1424.66321       0.4218       0.5562
   1424.64795       0.4689       0.4643    1424.64795       0.4688       0.4644
   1424.63269       0.3700       0.4678    1424.63269       0.3699       0.4678
   1424.61743       0.3982       0.5260    1424.61743       0.3982       0.5261
   1424.60217       0.4756       0.5302    1424.60217       0.4756       0.5303
   1424.58691       0.3271       0.5215    1424.58691       0.3270       0.5215
   1424.57166       0.3802       0.5648    1424.57166       0.3802       0.5648
   1424.55640       0.3595       0.5399    1424.55640       0.3594       0.5399
   1424.54114       0.4214       0.5137    1424.54114       0.4214       0.5137
   1424.52588       0.4484       0.5661    1424.52588       0.4483       0.5662
   1424.51062       0.3878       0.5232    1424.51062       0.3878       0.5233
   1424.49536       0.3653       0.5689    1424.49536       0.3652       0.5690
   1424.48010       0.4901       0.5321    1424.48010       0.4900       0.5321
   1424.46484       0.4378       0.4997    1424.46484       0.4377       0.4998
   1424.44958       0.4402       0.4079    1424.44958       0.4401       0.4079
   1424.43433       0.3822       0.4984    1424.43433       0.3821       0.4985
   1424.41907       0.3813       0.4929    1424.41907       0.3813       0.4930
   1424.40381       0.3799       0.5152    1424.40381       0.3798       0.5152
   1424.38855       0.4019       0.5068    1424.38855       0.4019       0.5068
   1424.37329       0.4163       0.4580    1424.37329       0.4163       0.4581
   1424.35803       0.4220       0.4629    1424.35803       0.4219       0.4629
   1424.34277       0.3629       0.5953    1424.34277       0.3629       0.5954
   1424.32751       0.3572       0.5745    1424.32751       0.3572       0.5745
   1424.31226       0.3598       0.5103    1424.31226       0.3597       0.5103
   1424.29700       0.4338       0.6382    1424.29700       0.4337       0.6383
   1424.28174       0.3787       0.6283    1424.28174       0.3786       0.6283
   1424.26648       0.2872       0.5260    1424.26648       0.2872       0.5260
   1424.25122       0.3484       0.5174    1424.25122       0.3484       0.5175
   1424.23596       0.4678       0.5150    1424.23596       0.4678       0.5150
   1424.22070       0.3189       0.4942    1424.22070       0.3188       0.4943
   1424.20544       0.3410       0.5469    1424.20544       0.3409       0.5469
   1424.19019       0.3448       0.6127    1424.19019       0.3447       0.6127
   1424.17493       0.3416       0.5946    1424.17493       0.3416       0.5947
   1424.15967       0.2931       0.5569    1424.15967       0.2931       0.5569
   1424.14441       0.3341       0.5482    1424.14441       0.3341       0.5482
   1424.12915       0.3275       0.5434    1424.12915       0.3274       0.5435
   1424.11389       0.3290       0.5260    1424.11389       0.3289       0.5260
   1424.09863       0.3968       0.5967    1424.09863       0.3968       0.5967
   1424.08337       0.3823       0.5291    1424.08337       0.3822       0.5291
   1424.06812       0.3232       0.5841    1424.06812       0.3231       0.5841
   1424.05286       0.2735       0.5336    1424.05286       0.2734       0.5337
   1424.03760       0.4175       0.5636    1424.03760       0.4175       0.5636
   1424.02234       0.3071       0.5126    1424.02234       0.3070       0.5126
   1424.00708       0.3746       0.5294    1424.00708       0.3746       0.5294
   1423.99182       0.3322       0.5705    1423.99182       0.3321       0.5706
   1423.97656       0.3555       0.4894    1423.97656       0.3554       0.4894
   1423.96130       0.4040       0.5120    1423.96130       0.4039       0.5121
   1423.94604       0.2622       0.5728    1423.94604       0.2622       0.5729
   1423.93079       0.2689       0.5248    1423.93079       0.2689       0.5248
   1423.91553       0.2872       0.5630    1423.91553       0.2872       0.5631
   1423.90027       0.3526       0.6215    1423.90027       0.3526       0.6215
   1423.88501       0.2291       0.5748    1423.88501       0.2291       0.5748
   1423.86975       0.2700       0.5482    1423.86975       0.2700       0.5482
   1423.85449       0.3034       0.5229    1423.85449       0.3033       0.5230
   1423.83923       0.3233       0.5717    1423.83923       0.3233       0.5717
   1423.82397       0.4168       0.5669    1423.82397       0.4167       0.5670
   1423.80872       0.3352       0.5467    1423.80872       0.3351       0.5468
   1423.79346       0.2112       0.5826    1423.79346       0.2112       0.5826
   1423.77820       0.3015       0.5649    1423.77820       0.3015       0.5649
   1423.76294       0.2825       0.5518    1423.76294       0.2824       0.5518
   1423.74768       0.2757       0.5612    1423.74768       0.2757       0.5612
   1423.73242       0.2470       0.5499    1423.73242       0.2470       0.5499
   1423.71716       0.3112       0.5253    1423.71716       0.3112       0.5253
   1423.70190       0.2838       0.5458    1423.70190       0.2838       0.5458
   1423.68665       0.2967       0.5614    1423.68665       0.2967       0.5615
   1423.67139       0.2643       0.5853    1423.67139       0.2643       0.5853
   1423.65613       0.3198       0.5858    1423.65613       0.3197       0.5858
   1423.64087       0.2628       0.6467    1423.64087       0.2628       0.6467
   1423.62561       0.2684       0.5638    1423.62561       0.2683       0.5639
   1423.61035       0.3290       0.5935    1423.61035       0.3289       0.5936
   1423.59509       0.2576       0.6220    1423.59509       0.2575       0.6220
   1423.57983       0.2601       0.5473    1423.57983       0.2600       0.5473
   1423.56458       0.2161       0.6048    1423.56458       0.2160       0.6048
   1423.54932       0.2739       0.6192    1423.54932       0.2739       0.6193
   1423.53406       0.3155       0.5571    1423.53406       0.3155       0.5571
   1423.51880       0.3296       0.5920    1423.51880       0.3296       0.5921
   1423.50354       0.2232       0.5450    1423.50354       0.2232       0.5451
   1423.48828       0.2437       0.5529    1423.48828       0.2436       0.5529
   1423.47302       0.2908       0.5858    1423.47302       0.2908       0.5858
   1423.45776       0.1657       0.4970    1423.45776       0.1656       0.4970
   1423.44250       0.1762       0.5894    1423.44250       0.1761       0.5895
   1423.42725       0.1943       0.5129    1423.42725       0.1943       0.5129
   1423.41199       0.1969       0.5696    1423.41199       0.1968       0.5697
   1423.39673       0.1910       0.4865    1423.39673       0.1910       0.4865
   1423.38147       0.2177       0.5446    1423.38147       0.2176       0.5446
   1423.36621       0.2608       0.5704    1423.36621       0.2607       0.5705
   1423.35095       0.2119       0.5104    1423.35095       0.2119       0.5104
   1423.33569       0.2238       0.6297    1423.33569       0.2237       0.6297
   1423.32043       0.2813       0.5508    1423.32043       0.2812       0.5509
   1423.30518       0.2257       0.5401    1423.30518       0.2257       0.5401
   1423.28992       0.2054       0.5551    1423.28992       0.2053       0.5551
   1423.27466       0.1846       0.5710    1423.27466       0.1846       0.5710
   1423.25940       0.1330       0.5666    1423.25940       0.1330       0.5666
   1423.24414       0.2103       0.5869    1423.24414       0.2103       0.5870
   1423.22888       0.2099       0.5666    1423.22888       0.2098       0.5666
   1423.21362       0.2141       0.6500    1423.21362       0.2140       0.6501
   1423.19836       0.3080       0.7163    1423.19836       0.3079       0.7164
   1423.18311       0.3666       0.7007    1423.18311       0.3665       0.7008
   1423.16785       0.5281       0.8759    1423.16785       0.5280       0.8759
   1423.15259       0.6033       0.9899    1423.15259       0.6032       0.9900
   1423.13733       0.6997       1.0118    1423.13733       0.6996       1.0118
   1423.12207       0.8200       1.1726    1423.12207       0.8198       1.1727
   1423.10681       0.8719       1.2437    1423.10681       0.8717       1.2438
   1423.09155       1.0075       1.3610    1423.09155       1.0074       1.3611
   1423.07629       1.0582       1.4718    1423.07629       1.0580       1.4719
   1423.06104       1.2650       1.6194    1423.06104       1.2648       1.6195
   1423.04578       1.3824       1.6811    1423.04578       1.3822       1.6812
   1423.03052       1.4158       1.7740    1423.03052       1.4156       1.7741
   1423.01526       1.6175       2.1465    1423.01526       1.6173       2.1467
   1423.00000       1.5900       2.2241    1423.00000       1.5898       2.2243
   1422.98474       1.6404       2.3018    1422.98474       1.6401       2.3019
   1422.96948       1.6357       2.1136    1422.96948       1.6354       2.1137
   1422.95422       1.7434       2.1099    1422.95422       1.7431       2.1100
   1422.93896       1.8164       2.0852    1422.93896       1.8161       2.0854
   1422.92371       1.7744       2.1863    1422.92371       1.7741       2.1864
   1422.90845       1.7772       2.1682    1422.90845       1.7769       2.1684
   1422.89319       1.8045       2.1889    1422.89319       1.8042       2.1890
   1422.87793       1.8680       2.1559    1422.87793       1.8677       2.1561
   1422.86267       1.8805       2.1550    1422.86267       1.8802       2.1551
   1422.84741       1.8890       2.2158    1422.84741       1.8887       2.2159
   1422.83215       1.8056       2.3010    1422.83215       1.8053       2.3011
   1422.81689       1.7411       2.1669    1422.81689       1.7408       2.1670
   1422.80164       1.7046       2.1546    1422.80164       1.7044       2.1548
   1422.78638       1.7806       2.1410    1422.78638       1.7803       2.1411
   1422.77112       1.6500       2.0561    1422.77112       1.6497       2.0562
   1422.75586       1.6019       2.0588    1422.75586       1.6017       2.0589
   1422.74060       1.5929       2.0491    1422.74060       1.5927       2.0492
   1422.72534       1.6058       2.0253    1422.72534       1.6055       2.0254
   1422.71008       1.6201       2.0145    1422.71008       1.6199       2.0147
   1422.69482       1.6062       2.0095    1422.69482       1.6060       2.0096
   1422.67957       1.6030       2.0460    1422.67957       1.6027       2.0461
   1422.66431       1.5639       2.0226    1422.66431       1.5637       2.0228
   1422.64905       1.5486       1.9913    1422.64905       1.5483       1.9915
   1422.63379       1.5372       1.9858    1422.63379       1.5370       1.9860
   1422.61853       1.5136       1.9836    1422.61853       1.5134       1.9838
   1422.60327       1.5888       2.0174    1422.60327       1.5885       2.0175
   1422.58801       1.6268       2.0272    1422.58801       1.6265       2.0273
   1422.57275       1.7242       2.0915    1422.57275       1.7239       2.0917
   1422.55750       1.8512       2.1770    1422.55750       1.8509       2.1772
   1422.54224       1.9111       2.2764    1422.54224       1.9108       2.2765
   1422.52698       1.9599       2.3739    1422.52698       1.9596       2.3741
   1422.51172       1.9576       2.3287    1422.51172       1.9573       2.3289
   1422.49646       1.9934       2.3626    1422.49646       1.9931       2.3628
   1422.48120       1.9993       2.3939    1422.48120       1.9990       2.3940
   1422.46594       2.0405       2.4872    1422.46594       2.0402       2.4873
   1422.45068       2.1077       2.5739    1422.45068       2.1074       2.5741
   1422.43542       2.2062       2.5653    1422.43542       2.2059       2.5655
   1422.42017       2.1604       2.5940    1422.42017       2.1601       2.5942
   1422.40491       2.2301       2.5137    1422.40491       2.2297       2.5139
   1422.38965       2.2318       2.5706    1422.38965       2.2314       2.5708
   1422.37439       2.3142       2.6479    1422.37439       2.3139       2.6481
   1422.35913       2.3411       2.7090    1422.35913       2.3408       2.7092
   1422.34387       2.2877       2.6849    1422.34387       2.2873       2.6851
   1422.32861       2.3356       2.7427    1422.32861       2.3352       2.7429
   1422.31335       2.4068       2.7908    1422.31335       2.4064       2.7911
   1422.29810       2.4414       2.7598    1422.29810       2.4410       2.7600
   1422.28284       2.4740       2.8280    1422.28284       2.4736       2.8282
   1422.26758       2.4550       2.8369    1422.26758       2.4546       2.8371
   1422.25232       2.4217       2.7991    1422.25232       2.4214       2.7993
   1422.23706       2.4469       2.7578    1422.23706       2.4466       2.7580
   1422.22180       2.4056       2.7804    1422.22180       2.4052       2.7806
   1422.20654       2.4287       2.8694    1422.20654       2.4284       2.8696
   1422.19128       2.3491       2.8213    1422.19128       2.3487       2.8215
   1422.17603       2.4011       2.7760    1422.17603       2.4008       2.7762
   1422.16077       2.4038       2.7410    1422.16077       2.4034       2.7412
   1422.14551       2.4437       2.7671    1422.14551       2.4433       2.7673
   1422.13025       2.4321       2.7050    1422.13025       2.4318       2.7052
   1422.11499       2.3016       2.7696    1422.11499       2.3013       2.7698
   1422.09973       2.3635       2.6838    1422.09973       2.3631       2.6840
   1422.08447       2.2197       2.5846    1422.08447       2.2194       2.5848
   1422.06921       2.1369       2.5693    1422.06921       2.1366       2.5694
   1422.05396       2.1270       2.4837    1422.05396       2.1267       2.4839
   1422.03870       2.1273       2.5493    1422.03870       2.1270       2.5495
   1422.02344       2.0913       2.5162    1422.02344       2.0910       2.5164
   1422.00818       2.1790       2.5449    1422.00818       2.1787       2.5450
   1421.99292       2.0095       2.4341    1421.99292       2.0092       2.4342
   1421.97766       1.9565       2.2982    1421.97766       1.9562       2.2984
   1421.96240       1.8713       2.2615    1421.96240       1.8710       2.2617
   1421.94714       1.8405       2.2772    1421.94714       1.8403       2.2773
   1421.93188       1.7848       2.2420    1421.93188       1.7845       2.2421
   1421.91663       1.6589       2.0844    1421.91663       1.6587       2.0845
   1421.90137       1.6704       2.0340    1421.90137       1.6702       2.0342
   1421.88611       1.5209       1.9277    1421.88611       1.5207       1.9278
   1421.87085       1.4290       1.9035    1421.87085       1.4288       1.9037
   1421.85559       1.3727       1.8479    1421.85559       1.3725       1.8480
   1421.84033       1.1553       1.8217    1421.84033       1.1552       1.8218
   1421.82507       1.1592       1.6965    1421.82507       1.1591       1.6966
   1421.80981       1.0548       1.5862    1421.80981       1.0546       1.5863
   1421.79456       0.9433       1.5510    1421.79456       0.9431       1.5511
   1421.77930       0.9280       1.4116    1421.77930       0.9278       1.4118
   1421.76404       0.8831       1.2985    1421.76404       0.8830       1.2986
   1421.74878       0.8557       1.3262    1421.74878       0.8556       1.3263
   1421.73352       0.7814       1.2712    1421.73352       0.7813       1.2713
   1421.71826       0.7206       1.1868    1421.71826       0.7205       1.1869
   1421.70300       0.5934       1.1543    1421.70300       0.5933       1.1543
   1421.68774       0.5778       1.0556    1421.68774       0.5777       1.0556
   1421.67249       0.5978       1.0311    1421.67249       0.5977       1.0311
   1421.65723       0.4947       1.0760    1421.65723       0.4947       1.0761
   1421.64197       0.5329       1.0296    1421.64197       0.5329       1.0296
   1421.62671       0.3593       0.9145    1421.62671       0.3592       0.9145
   1421.61145       0.3219       0.8986    1421.61145       0.3218       0.8986
   1421.59619       0.3243       0.8947    1421.59619       0.3242       0.8948
   1421.58093       0.3392       0.8911    1421.58093       0.3392       0.8912
   1421.56567       0.2946       0.7867    1421.56567       0.2945       0.7868
   1421.55042       0.2652       0.7918    1421.55042       0.2652       0.7919
   1421.53516       0.1982       0.6947    1421.53516       0.1982       0.6947
   1421.51990       0.1873       0.7620    1421.51990       0.1873       0.7620
   1421.50464       0.2366       0.8048    1421.50464       0.2365       0.8049
   1421.48938       0.2616       0.7050    1421.48938       0.2616       0.7051
   1421.47412       0.1535       0.6927    1421.47412       0.1535       0.6927
   1421.45886       0.1544       0.7607    1421.45886       0.1544       0.7607
   1421.44360       0.1505       0.7543    1421.44360       0.1505       0.7544
   1421.42834       0.2517       0.7702    1421.42834       0.2517       0.7703
   1421.41309       0.0917       0.6377    1421.41309       0.0917       0.6378
   1421.39783       0.0536       0.6596    1421.39783       0.0536       0.6597
   1421.38257       0.1749       0.7063    1421.38257       0.1749       0.7064
   1421.36731       0.0901       0.6641    1421.36731       0.0900       0.6641
   1421.35205       0.1074       0.6285    1421.35205       0.1074       0.6285
   1421.33679       0.0997       0.6837    1421.33679       0.0997       0.6837
   1421.32153       0.1409       0.6634    1421.32153       0.1408       0.6634
   1421.30627       0.0973       0.6377    1421.30627       0.0973       0.6378
   1421.29102       0.0750       0.6400    1421.29102       0.0750       0.6400
   1421.27576       0.0813       0.6598    1421.27576       0.0813       0.6599
   1421.26050       0.0751       0.6519    1421.26050       0.0751       0.6520
   1421.24524       0.0934       0.6366    1421.24524       0.0934       0.6366
   1421.22998       0.1005       0.6643    1421.22998       0.1005       0.6644
   1421.21472       0.0216       0.6687    1421.21472       0.0216       0.6688
   1421.19946       0.0865       0.6505    1421.19946       0.0865       0.6506
   1421.18420       0.1156       0.5711    1421.18420       0.1156       0.5712
   1421.16895       0.0908       0.6894    1421.16895       0.0908       0.6894
   1421.15369       0.0411       0.6560    1421.15369       0.0411       0.6560
   1421.13843       0.0814       0.6743    1421.13843       0.0814       0.6743
   1421.12317       0.0163       0.6025    1421.12317       0.0163       0.6025
   1421.10791       0.0205       0.6285    1421.10791       0.0205       0.6285
   1421.09265       0.0735       0.6991    1421.09265       0.0735       0.6992
   1421.07739       0.0443       0.7180    1421.07739       0.0442       0.7181
   1421.06213       0.0831       0.7638    1421.06213       0.0831       0.7639
   1421.04688       0.0535       0.6406    1421.04688       0.0535       0.6407
   1421.03162       0.0532       0.6049    1421.03162       0.0532       0.6050
   1421.01636       0.0004       0.6352    1421.01636       0.0004       0.6352
   1421.00110       0.0349       0.6293    1421.00110       0.0348       0.6293
   1420.98584       0.0456       0.7419    1420.98584       0.0456       0.7420
   1420.97058       0.0716       0.6129    1420.97058       0.0716       0.6129
   1420.95532      -0.0604       0.5646    1420.95532      -0.0604       0.5646
   1420.94006      -0.0308       0.6006    1420.94006      -0.0308       0.6006
   1420.92480      -0.0922       0.5713    1420.92480      -0.0922       0.5713
   1420.90955      -0.2242       0.4246    1420.90955      -0.2242       0.4246
   1420.89429      -0.2569       0.4019    1420.89429      -0.2569       0.4019
   1420.87903      -0.2568       0.3922    1420.87903      -0.2568       0.3923
   1420.86377      -0.1757       0.4086    1420.86377      -0.1756       0.4086
   1420.84851      -0.1097       0.4946    1420.84851      -0.1097       0.4946
   1420.83325      -0.1228       0.5117    1420.83325      -0.1228       0.5118
   1420.81799      -0.0375       0.4828    1420.81799      -0.0375       0.4829
   1420.80273      -0.0413       0.5836    1420.80273      -0.0413       0.5836
   1420.78748      -0.0246       0.6305    1420.78748      -0.0246       0.6305
   1420.77222      -0.0398       0.7130    1420.77222      -0.0398       0.7130
   1420.75696       0.1810       0.7594    1420.75696       0.1809       0.7595
   1420.74170       0.2950       0.8487    1420.74170       0.2949       0.8488
   1420.72644       0.4980       0.9878    1420.72644       0.4979       0.9878
   1420.71118       0.7194       1.1930    1420.71118       0.7193       1.1931
   1420.69592       0.8394       1.4737    1420.69592       0.8393       1.4738
   1420.68066       0.9811       1.5244    1420.68066       0.9809       1.5245
   1420.66541       0.9465       1.6285    1420.66541       0.9464       1.6286
   1420.65015       1.1157       1.6042    1420.65015       1.1156       1.6043
   1420.63489       1.2007       1.7406    1420.63489       1.2005       1.7407
   1420.61963       1.3268       1.6689    1420.61963       1.3266       1.6690
   1420.60437       1.2617       1.7538    1420.60437       1.2615       1.7539
   1420.58911       0.8328       1.2487    1420.58911       0.8327       1.2488
   1420.57385       0.2994       0.7948    1420.57385       0.2993       0.7948
   1420.55859      -0.0018       0.4842    1420.55859      -0.0018       0.4842
   1420.54333      -0.5638      -0.0044    1420.54333      -0.5637      -0.0044
   1420.52808      -0.5648       0.0475    1420.52808      -0.5647       0.0475
   1420.51282      -0.2648       0.4350    1420.51282      -0.2647       0.4350
   1420.49756      -0.1338       0.6482    1420.49756      -0.1338       0.6482
   1420.48230      -0.2786       0.3609    1420.48230      -0.2786       0.3609
   1420.46704      -0.6224      -0.0329    1420.46704      -0.6223      -0.0329
   1420.45178      -0.8275      -0.0982    1420.45178      -0.8274      -0.0982
   1420.43652      -1.0227      -0.4174    1420.43652      -1.0226      -0.4175
   1420.42126       1.4496       2.0617    1420.42126       1.4493       2.0618
   1420.40601       5.0695       5.3934    1420.40601       5.0687       5.3938
   1420.39075       4.2981       4.8608    1420.39075       4.2975       4.8612
   1420.37549       0.4604       1.1035    1420.37549       0.4603       1.1035
   1420.36023       0.2945       0.8611    1420.36023       0.2944       0.8611
   1420.34497       0.0815       0.6105    1420.34497       0.0815       0.6105
   1420.32971       0.0954       0.7216    1420.32971       0.0954       0.7216
   1420.31445      -0.0134       0.6373    1420.31445      -0.0134       0.6374
   1420.29919       0.0398       0.5917    1420.29919       0.0398       0.5918
   1420.28394      -0.1597       0.5189    1420.28394      -0.1597       0.5189
   1420.26868      -0.0602       0.5539    1420.26868      -0.0602       0.5540
   1420.25342      -0.1027       0.5908    1420.25342      -0.1026       0.5908
   1420.23816      -0.0399       0.5189    1420.23816      -0.0399       0.5189
   1420.22290       0.0430       0.6962    1420.22290       0.0430       0.6962
   1420.20764       0.0459       0.6181    1420.20764       0.0459       0.6181
   1420.19238       0.0010       0.6836    1420.19238       0.0010       0.6837
   1420.17712       0.0002       0.6254    1420.17712       0.0002       0.6254
   1420.16187       0.0553       0.5529    1420.16187       0.0553       0.5529
   1420.14661      -0.0215       0.6667    1420.14661      -0.0215       0.6668
   1420.13135       0.0483       0.6975    1420.13135       0.0483       0.6976
   1420.11609       0.0724       0.6119    1420.11609       0.0724       0.6119
   1420.10083      -0.0203       0.6289    1420.10083      -0.0203       0.6290
   1420.08557       0.0229       0.6005    1420.08557       0.0229       0.6006
   1420.07031       0.0835       0.6412    1420.07031       0.0835       0.6413
   1420.05505       0.0134       0.6013    1420.05505       0.0134       0.6013
   1420.03979       0.0561       0.6718    1420.03979       0.0561       0.6719
   1420.02454       0.0058       0.5965    1420.02454       0.0058       0.5965
   1420.00928       0.0590       0.6167    1420.00928       0.0590       0.6167
   1419.99402      -0.0279       0.6078    1419.99402      -0.0279       0.6078
   1419.97876       0.0493       0.6532    1419.97876       0.0493       0.6532
   1419.96350      -0.0444       0.6713    1419.96350      -0.0444       0.6714
   1419.94824       0.0305       0.6886    1419.94824       0.0305       0.6887
   1419.93298       0.0298       0.7114    1419.93298       0.0298       0.7115
   1419.91772      -0.0164       0.7070    1419.91772      -0.0164       0.7070
   1419.90247       0.0702       0.6553    1419.90247       0.0702       0.6553
   1419.88721       0.0549       0.6628    1419.88721       0.0549       0.6629
   1419.87195       0.0547       0.6431    1419.87195       0.0547       0.6431
   1419.85669       0.0551       0.6459    1419.85669       0.0551       0.6460
   1419.84143       0.0892       0.6828    1419.84143       0.0892       0.6828
   1419.82617       0.0814       0.6650    1419.82617       0.0814       0.6651
   1419.81091       0.0258       0.7199    1419.81091       0.0258       0.7199
   1419.79565       0.0486       0.6415    1419.79565       0.0486       0.6416
   1419.78040       0.0729       0.6786    1419.78040       0.0729       0.6786
   1419.76514       0.0630       0.6745    1419.76514       0.0630       0.6746
   1419.74988       0.0506       0.6579    1419.74988       0.0506       0.6580
   1419.73462       0.0330       0.6831    1419.73462       0.0330       0.6831
   1419.71936       0.0705       0.6592    1419.71936       0.0704       0.6592
   1419.70410       0.0872       0.6009    1419.70410       0.0872       0.6009
   1419.68884       0.0658       0.7384    1419.68884       0.0658       0.7384
   1419.67358       0.0135       0.7250    1419.67358       0.0135       0.7250
   1419.65833       0.0352       0.6698    1419.65833       0.0352       0.6699
   1419.64307       0.0770       0.6359    1419.64307       0.0770       0.6360
   1419.62781       0.0806       0.6682    1419.62781       0.0805       0.6683
   1419.61255       0.0444       0.6679    1419.61255       0.0444       0.6680
   1419.59729       0.0699       0.6570    1419.59729       0.0699       0.6570
   1419.58203       0.0796       0.7524    1419.58203       0.0795       0.7524
   1419.56677       0.1070       0.6040    1419.56677       0.1069       0.6040
   1419.55151       0.1165       0.6815    1419.55151       0.1165       0.6815
   1419.53625       0.0934       0.6995    1419.53625       0.0934       0.6996
   1419.52100       0.0975       0.6782    1419.52100       0.0975       0.6783
   1419.50574       0.1199       0.7096    1419.50574       0.1198       0.7097
   1419.49048       0.0891       0.6369    1419.49048       0.0891       0.6369
   1419.47522       0.0921       0.6458    1419.47522       0.0921       0.6458
   1419.45996       0.0835       0.7287    1419.45996       0.0835       0.7287
   1419.44470       0.1165       0.6735    1419.44470       0.1165       0.6736
   1419.42944       0.1230       0.6981    1419.42944       0.1230       0.6981
   1419.41418       0.0866       0.6312    1419.41418       0.0866       0.6312
   1419.39893       0.1138       0.6739    1419.39893       0.1137       0.6739
   1419.38367       0.0895       0.7331    1419.38367       0.0895       0.7332
   1419.36841       0.1086       0.7191    1419.36841       0.1085       0.7191
   1419.35315       0.1518       0.7391    1419.35315       0.1518       0.7391
   1419.33789       0.1150       0.6648    1419.33789       0.1150       0.6648
   1419.32263       0.1441       0.6810    1419.32263       0.1441       0.6810
   1419.30737       0.1071       0.6999    1419.30737       0.1071       0.6999
   1419.29211       0.1114       0.6471    1419.29211       0.1114       0.6471
   1419.27686       0.1021       0.7161    1419.27686       0.1021       0.7161
   1419.26160       0.1146       0.7038    1419.26160       0.1146       0.7038
   1419.24634       0.0506       0.6121    1419.24634       0.0506       0.6121
   1419.23108       0.1187       0.6721    1419.23108       0.1187       0.6721
   1419.21582       0.2026       0.7361    1419.21582       0.2026       0.7361
   1419.20056       0.0985       0.6968    1419.20056       0.0985       0.6969
   1419.18530       0.0725       0.6437    1419.18530       0.0725       0.6438
   1419.17004       0.0684       0.5976    1419.17004       0.0684       0.5977
   1419.15479       0.1819       0.7034    1419.15479       0.1819       0.7035
   1419.13953       0.1391       0.7652    1419.13953       0.1390       0.7652
   1419.12427       0.1047       0.6971    1419.12427       0.1047       0.6971
   1419.10901       0.1168       0.6686    1419.10901       0.1168       0.6686
   1419.09375       0.1159       0.7329    1419.09375       0.1159       0.7329
   1419.07849       0.1379       0.6722    1419.07849       0.1379       0.6723
   1419.06323       0.1606       0.7107    1419.06323       0.1606       0.7108
   1419.04797       0.1662       0.7141    1419.04797       0.1661       0.7142
   1419.03271       0.2020       0.6453    1419.03271       0.2020       0.6453
   1419.01746       0.1192       0.7184    1419.01746       0.1191       0.7184
   1419.00220       0.1711       0.7327    1419.00220       0.1710       0.7327
   1418.98694       0.1677       0.7199    1418.98694       0.1677       0.7199
   1418.97168       0.1480       0.6284    1418.97168       0.1480       0.6285
   1418.95642       0.1419       0.6435    1418.95642       0.1419       0.6436
   1418.94116       0.1301       0.7010    1418.94116       0.1300       0.7011
   1418.92590       0.2085       0.6749    1418.92590       0.2085       0.6749
   1418.91064       0.1953       0.6590    1418.91064       0.1953       0.6591
   1418.89539       0.1184       0.6805    1418.89539       0.1184       0.6805
   1418.88013       0.2117       0.6903    1418.88013       0.2117       0.6903
   1418.86487       0.1607       0.6670    1418.86487       0.1606       0.6671
   1418.84961       0.1464       0.6244    1418.84961       0.1464       0.6245
   1418.83435       0.2419       0.6222    1418.83435       0.2419       0.6222
   1418.81909       0.2117       0.6536    1418.81909       0.2116       0.6536
   1418.80383       0.2363       0.7729    1418.80383       0.2363       0.7730
   1418.78857       0.2376       0.6099    1418.78857       0.2376       0.6099
   1418.77332       0.2752       0.6098    1418.77332       0.2752       0.6098
   1418.75806       0.2266       0.6545    1418.75806       0.2266       0.6545
   1418.74280       0.2649       0.6742    1418.74280       0.2649       0.6742
   1418.72754       0.2097       0.6327    1418.72754       0.2096       0.6327
   1418.71228       0.2009       0.6570    1418.71228       0.2008       0.6570
   1418.69702       0.1930       0.7163    1418.69702       0.1929       0.7163
   1418.68176       0.1944       0.6520    1418.68176       0.1944       0.6520
   1418.66650       0.2098       0.6339    1418.66650       0.2097       0.6339
   1418.65125       0.2512       0.6197    1418.65125       0.2511       0.6198
   1418.63599       0.1323       0.6471    1418.63599       0.1323       0.6472
   1418.62073       0.0878       0.6011    1418.62073       0.0877       0.6011
   1418.60547       0.2318       0.6662    1418.60547       0.2317       0.6663
   1418.59021       0.2352       0.7225    1418.59021       0.2352       0.7225
   1418.57495       0.2542       0.6682    1418.57495       0.2542       0.6682
   1418.55969       0.1785       0.6679    1418.55969       0.1784       0.6679
   1418.54443       0.2190       0.6182    1418.54443       0.2190       0.6182
   1418.52917       0.1718       0.6208    1418.52917       0.1718       0.6209
   1418.51392       0.1773       0.6396    1418.51392       0.1773       0.6396
   1418.49866       0.2708       0.6504    1418.49866       0.2708       0.6505
   1418.48340       0.2253       0.7360    1418.48340       0.2252       0.7360
   1418.46814       0.2054       0.6678    1418.46814       0.2054       0.6679
   1418.45288       0.2586       0.6671    1418.45288       0.2586       0.6672
   1418.43762       0.2497       0.5815    1418.43762       0.2497       0.5815
   1418.42236       0.2335       0.6303    1418.42236       0.2335       0.6304
   1418.40710       0.2922       0.7269    1418.40710       0.2922       0.7269
   1418.39185       0.2386       0.6305    1418.39185       0.2386       0.6305
   1418.37659       0.2069       0.6313    1418.37659       0.2069       0.6314
   1418.36133       0.2514       0.6160    1418.36133       0.2513       0.6160
   1418.34607       0.2536       0.6211    1418.34607       0.2535       0.6212
   1418.33081       0.2479       0.6604    1418.33081       0.2478       0.6605
   1418.31555       0.1515       0.6793    1418.31555       0.1514       0.6793
   1418.30029       0.2176       0.5860    1418.30029       0.2176       0.5861
   1418.28503       0.2480       0.6287    1418.28503       0.2479       0.6288
   1418.26978       0.3134       0.6169    1418.26978       0.3133       0.6169
   1418.25452       0.2520       0.5861    1418.25452       0.2520       0.5861
   1418.23926       0.3512       0.6230    1418.23926       0.3511       0.6230
   1418.22400       0.2809       0.7196    1418.22400       0.2809       0.7196
   1418.20874       0.2013       0.6138    1418.20874       0.2013       0.6138
   1418.19348       0.2407       0.6017    1418.19348       0.2407       0.6018
   1418.17822       0.3308       0.5970    1418.17822       0.3308       0.5970
   1418.16296       0.2988       0.6253    1418.16296       0.2987       0.6253
   1418.14771       0.2489       0.5965    1418.14771       0.2488       0.5966
   1418.13245       0.2719       0.5820    1418.13245       0.2719       0.5821
   1418.11719       0.3625       0.6906    1418.11719       0.3624       0.6906
   1418.10193       0.2928       0.6699    1418.10193       0.2928       0.6700
   1418.08667       0.3547       0.6110    1418.08667       0.3546       0.6110
   1418.07141       0.2883       0.6149    1418.07141       0.2882       0.6149
   1418.05615       0.2947       0.7104    1418.05615       0.2947       0.7104
   1418.04089       0.2793       0.6718    1418.04089       0.2793       0.6718
   1418.02563       0.3014       0.6130    1418.02563       0.3014       0.6131
   1418.01038       0.3234       0.6701    1418.01038       0.3233       0.6702
   1417.99512       0.2084       0.6427    1417.99512       0.2084       0.6428
   1417.97986       0.2558       0.6090    1417.97986       0.2558       0.6091
   1417.96460       0.2166       0.7060    1417.96460       0.2166       0.7060
   1417.94934       0.3445       0.6939    1417.94934       0.3445       0.6939
   1417.93408       0.3070       0.6091    1417.93408       0.3069       0.6092
   1417.91882       0.3123       0.6218    1417.91882       0.3123       0.6218
   1417.90356       0.3552       0.6641    1417.90356       0.3551       0.6641
   1417.88831       0.2792       0.6698    1417.88831       0.2791       0.6699
   1417.87305       0.2739       0.6735    1417.87305       0.2739       0.6736
   1417.85779       0.2440       0.6312    1417.85779       0.2440       0.6312
   1417.84253       0.2674       0.6329    1417.84253       0.2674       0.6330
   1417.82727       0.3469       0.7087    1417.82727       0.3469       0.7087
   1417.81201       0.3579       0.5938    1417.81201       0.3578       0.5939
   1417.79675       0.3393       0.5442    1417.79675       0.3392       0.5443
   1417.78149       0.2501       0.6192    1417.78149       0.2500       0.6192
   1417.76624       0.3797       0.6276    1417.76624       0.3797       0.6276
   1417.75098       0.3951       0.6192    1417.75098       0.3951       0.6193
   1417.73572       0.3011       0.6277    1417.73572       0.3011       0.6278
   1417.72046       0.3741       0.6162    1417.72046       0.3740       0.6163
   1417.70520       0.3330       0.5622    1417.70520       0.3329       0.5623
   1417.68994       0.3344       0.5821    1417.68994       0.3344       0.5822
   1417.67468       0.3595       0.6817    1417.67468       0.3595       0.6817
   1417.65942       0.3762       0.6032    1417.65942       0.3761       0.6033
   1417.64417       0.3565       0.5750    1417.64417       0.3565       0.5751
   1417.62891       0.3731       0.6396    1417.62891       0.3730       0.6396
   1417.61365       0.3848       0.5771    1417.61365       0.3847       0.5771
   1417.59839       0.3093       0.6425    1417.59839       0.3093       0.6426
   1417.58313       0.2729       0.5994    1417.58313       0.2729       0.5994
   1417.56787       0.3374       0.5920    1417.56787       0.3374       0.5921
   1417.55261       0.3206       0.6206    1417.55261       0.3206       0.6207
   1417.53735       0.3407       0.6260    1417.53735       0.3407       0.6261
   1417.52209       0.4173       0.6155    1417.52209       0.4172       0.6155
   1417.50684       0.3276       0.6248    1417.50684       0.3275       0.6249
   1417.49158       0.3974       0.6796    1417.49158       0.3973       0.6797
   1417.47632       0.4148       0.6174    1417.47632       0.4148       0.6174
   1417.46106       0.2927       0.6491    1417.46106       0.2927       0.6491
   1417.44580       0.3961       0.5527    1417.44580       0.3960       0.5527
   1417.43054       0.3487       0.5387    1417.43054       0.3486       0.5388
   1417.41528       0.3141       0.6209    1417.41528       0.3141       0.6209
   1417.40002       0.2665       0.6117    1417.40002       0.2665       0.6118
   1417.38477       0.3866       0.5491    1417.38477       0.3866       0.5491
   1417.36951       0.3666       0.6343    1417.36951       0.3665       0.6344
   1417.35425       0.4289       0.5027    1417.35425       0.4288       0.5027
   1417.33899       0.4336       0.5850    1417.33899       0.4335       0.5851
   1417.32373       0.4039       0.5632    1417.32373       0.4039       0.5632
   1417.30847       0.4232       0.6387    1417.30847       0.4232       0.6388
   1417.29321       0.3671       0.5907    1417.29321       0.3671       0.5908
   1417.27795       0.4121       0.5862    1417.27795       0.4120       0.5863
   1417.26270       0.3495       0.6024    1417.26270       0.3494       0.6024
   1417.24744       0.3064       0.6212    1417.24744       0.3063       0.6212
   1417.23218       0.2896       0.6103    1417.23218       0.2895       0.6104
   1417.21692       0.3346       0.6664    1417.21692       0.3346       0.6664
   1417.20166       0.3133       0.5242    1417.20166       0.3132       0.5242
   1417.18640       0.4333       0.5704    1417.18640       0.4333       0.5705
   1417.17114       0.4168       0.6155    1417.17114       0.4167       0.6155
   1417.15588       0.3876       0.6024    1417.15588       0.3875       0.6025
   1417.14062       0.3526       0.5912    1417.14062       0.3525       0.5912
   1417.12537       0.4146       0.5813    1417.12537       0.4145       0.5814
   1417.11011       0.2967       0.6162    1417.11011       0.2966       0.6163
   1417.09485       0.4616       0.5961    1417.09485       0.4615       0.5961
   1417.07959       0.3761       0.6100    1417.07959       0.3760       0.6100
   1417.06433       0.3739       0.5188    1417.06433       0.3739       0.5188
   1417.04907       0.4073       0.6453    1417.04907       0.4072       0.6453
   1417.03381       0.4743       0.5521    1417.03381       0.4742       0.5521
   1417.01855       0.3891       0.5437    1417.01855       0.3891       0.5437
   1417.00330       0.3365       0.4928    1417.00330       0.3365       0.4928
   1416.98804       0.3552       0.5404    1416.98804       0.3552       0.5405
   1416.97278       0.3888       0.6023    1416.97278       0.3888       0.6024
   1416.95752       0.4264       0.6392    1416.95752       0.4264       0.6393
   1416.94226       0.4274       0.5542    1416.94226       0.4273       0.5543
   1416.92700       0.4373       0.5710    1416.92700       0.4372       0.5711
   1416.91174       0.3656       0.5618    1416.91174       0.3655       0.5619
   1416.89648       0.4750       0.5593    1416.89648       0.4749       0.5594
   1416.88123       0.3925       0.5751    1416.88123       0.3925       0.5752
   1416.86597       0.3932       0.5785    1416.86597       0.3932       0.5785
   1416.85071       0.4912       0.5896    1416.85071       0.4912       0.5897
   1416.83545       0.4979       0.5844    1416.83545       0.4978       0.5844
   1416.82019       0.3757       0.6060    1416.82019       0.3756       0.6060
   1416.80493       0.3280       0.5496    1416.80493       0.3279       0.5496
   1416.78967       0.5037       0.5672    1416.78967       0.5036       0.5673
   1416.77441       0.4228       0.6453    1416.77441       0.4228       0.6454
   1416.75916       0.4063       0.6143    1416.75916       0.4062       0.6144
   1416.74390       0.4736       0.5696    1416.74390       0.4735       0.5696
   1416.72864       0.4541       0.5789    1416.72864       0.4540       0.5789
   1416.71338       0.4266       0.6878    1416.71338       0.4265       0.6878
   1416.69812       0.4950       0.5627    1416.69812       0.4949       0.5627
   1416.68286       0.4376       0.5756    1416.68286       0.4375       0.5756
   1416.66760       0.3849       0.6482    1416.66760       0.3848       0.6482
   1416.65234       0.4735       0.5330    1416.65234       0.4734       0.5331
   1416.63708       0.5024       0.5812    1416.63708       0.5023       0.5812
   1416.62183       0.4270       0.5925    1416.62183       0.4269       0.5925
   1416.60657       0.3401       0.5291    1416.60657       0.3400       0.5292
   1416.59131       0.3562       0.6130    1416.59131       0.3561       0.6130
   1416.57605       0.3620       0.5862    1416.57605       0.3619       0.5863
   1416.56079       0.3673       0.6173    1416.56079       0.3673       0.6174
   1416.54553       0.4117       0.5743    1416.54553       0.4117       0.5743
   1416.53027       0.4604       0.5871    1416.53027       0.4603       0.5872
   1416.51501       0.3483       0.5501    1416.51501       0.3483       0.5502
   1416.49976       0.4652       0.6006    1416.49976       0.4651       0.6006
   1416.48450       0.4014       0.5138    1416.48450       0.4014       0.5138
   1416.46924       0.3722       0.5455    1416.46924       0.3721       0.5455
   1416.45398       0.4941       0.6213    1416.45398       0.4940       0.6214
   1416.43872       0.4720       0.5285    1416.43872       0.4720       0.5285
   1416.42346       0.4376       0.5552    1416.42346       0.4375       0.5552
   1416.40820       0.4549       0.5709    1416.40820       0.4548       0.5709
   1416.39294       0.4424       0.4742    1416.39294       0.4423       0.4742
   1416.37769       0.4922       0.5837    1416.37769       0.4922       0.5837
   1416.36243       0.4560       0.5488    1416.36243       0.4559       0.5489
   1416.34717       0.5103       0.5954    1416.34717       0.5102       0.5955
   1416.33191       0.4145       0.6076    1416.33191       0.4144       0.6077
   1416.31665       0.4569       0.5644    1416.31665       0.4568       0.5644
   1416.30139       0.4205       0.5115    1416.30139       0.4204       0.5115
   1416.28613       0.4296       0.6159    1416.28613       0.4295       0.6159
   1416.27087       0.4631       0.5161    1416.27087       0.4631       0.5161
   1416.25562       0.4413       0.5283    1416.25562       0.4413       0.5283
   1416.24036       0.4873       0.5582    1416.24036       0.4872       0.5583
   1416.22510       0.3067       0.5487    1416.22510       0.3067       0.5487
   1416.20984       0.4756       0.5454    1416.20984       0.4755       0.5454
   1416.19458       0.4027       0.6246    1416.19458       0.4026       0.6246
   1416.17932       0.4476       0.6586    1416.17932       0.4475       0.6586
   1416.16406       0.4287       0.5707    1416.16406       0.4286       0.5707
   1416.14880       0.4194       0.5086    1416.14880       0.4194       0.5087
   1416.13354       0.3877       0.5657    1416.13354       0.3877       0.5657
   1416.11829       0.4463       0.6219    1416.11829       0.4462       0.6220
   1416.10303       0.3806       0.5927    1416.10303       0.3805       0.5927
   1416.08777       0.4181       0.6011    1416.08777       0.4180       0.6012
   1416.07251       0.3346       0.5096    1416.07251       0.3346       0.5096
   1416.05725       0.4294       0.5001    1416.05725       0.4294       0.5001
   1416.04199       0.4200       0.5232    1416.04199       0.4200       0.5232
   1416.02673       0.4012       0.4835    1416.02673       0.4011       0.4836
   1416.01147       0.4073       0.5512    1416.01147       0.4073       0.5512
   1415.99622       0.4533       0.5867    1415.99622       0.4532       0.5867
