#     FILENAME=Skynet_59284_M31_35kpc_Spoor_52431_1402.A.onoff.cal.txt
#     BASENAME=Skynet_59284_M31_35kpc_Spoor_52431_1402
#      CONTROL=SKYNET
#     PROJCODE=Skynet_59284_M31_35kpc_Spoor_52431
#     DATAROOT=/raid/scratch/cyborg/SkynetData
#      DATADIR=/raid/scratch/cyborg
#     DATADIR2=/raid/scratch/cyborg/SkynetData/Skynet_59284_M31_35kpc_Spoor_52
#     SCANNAME=2019_06_26_10
#     SRC_NAME=M31_35kpc_Spoor
#     OBSERVER=unioncollege_21317
#     DATE_OBS=2021-03-11T12:19:02.270
#        OBSID=52431
#      SCANNUM=1402
#          MJD=59284.5132207
#          UTC=44342
#     SCANTYPE=onoff
#     DATAMODE=HIRES
#     RECEIVER=Rx1_2
#      OBSFREQ=1395.0000
# Actual_FREQ1=1420.4000,
# Actual_FREQ2=1420.4000
#    LO1Tuning=6870.4000
#     RFFILTER=1355_1435
#        OBSBW=-15.6250
#     EFFBANDW=15.6250
#        NCHAN=1024
#    STARTCHAN=51
#     STOPCHAN=972
#         TINT=0.3000
#         TBIN=0.00419430
#       ACCLEN=2048 
#     DURATION=324.00
#     EXPOSURE=250.46
#        FOCUS=37.071
#       RA,DEC=00:34:30.27, 39:14:24.59
#      RA(deg)=7.30615
#     DEC(deg)=39.24048
#   WIDTH(deg)=2.0630x0.0250
#    AZIM(deg)=55.6250
#    ELEV(deg)=21.4113
#     COORDREF=RA_DEC_
#         HREF=8.5971
#         VREF=39.2405
#      RADESYS=FK5
#       OFFSYS=RADEC
#      EQUINOX=2000.00
#     IFATTENS=21.00, 14.00
#   BALANCELEV=1.200 
#   POWER_XLYR=[3.13, 2.73] 
#       VELDEF=RADI-OBS 
#     VELOCITY=0.000 
#         NPOL=2 
#      POLMODE=Linear 
#      POLTYPE=XXYY 
#      WARNING=None 
#     NOISECAL=HI 
#       PRECAL=2 
#      POSTCAL=2 
#     CRYOTEMP=15 
#      BOXTEMP=26 
#         TSYS=XX1:36.14, YY1:43.52
#         TSYS=XX2:36.14, YY2:43.52
#         TCAL=XX1:9.17, YY1:10.07
#         TCAL=XX2:9.17, YY2:10.07
# Calibrated spectra: Tsys*(ON-OFF)/OFF 
#                
#                
#Freq1(MHz)         XX1          YY1   Freq2(MHz)       XX2         YY2 
   1427.43430       1.3374       0.5285    1427.43430       1.3375       0.5285
   1427.41904       1.3470       0.5527    1427.41904       1.3471       0.5527
   1427.40378       1.3846       0.5788    1427.40378       1.3847       0.5788
   1427.38853       1.3149       0.5521    1427.38853       1.3150       0.5521
   1427.37327       1.3493       0.6438    1427.37327       1.3494       0.6438
   1427.35801       1.3851       0.5961    1427.35801       1.3851       0.5961
   1427.34275       1.4181       0.5137    1427.34275       1.4182       0.5137
   1427.32749       1.2947       0.5026    1427.32749       1.2948       0.5026
   1427.31223       1.3568       0.5347    1427.31223       1.3569       0.5347
   1427.29697       1.4251       0.4192    1427.29697       1.4252       0.4192
   1427.28171       1.3573       0.4764    1427.28171       1.3574       0.4764
   1427.26646       1.3764       0.5015    1427.26646       1.3765       0.5015
   1427.25120       1.3971       0.5513    1427.25120       1.3972       0.5513
   1427.23594       1.3913       0.5501    1427.23594       1.3914       0.5501
   1427.22068       1.3900       0.4979    1427.22068       1.3901       0.4979
   1427.20542       1.3639       0.4333    1427.20542       1.3640       0.4333
   1427.19016       1.3360       0.5339    1427.19016       1.3361       0.5339
   1427.17490       1.3155       0.5860    1427.17490       1.3156       0.5860
   1427.15964       1.3740       0.4698    1427.15964       1.3741       0.4698
   1427.14438       1.3577       0.5743    1427.14438       1.3577       0.5743
   1427.12913       1.3451       0.4868    1427.12913       1.3452       0.4868
   1427.11387       1.3718       0.4431    1427.11387       1.3719       0.4431
   1427.09861       1.3071       0.5756    1427.09861       1.3072       0.5756
   1427.08335       1.3218       0.4414    1427.08335       1.3219       0.4414
   1427.06809       1.3254       0.5250    1427.06809       1.3254       0.5250
   1427.05283       1.3613       0.5008    1427.05283       1.3614       0.5008
   1427.03757       1.3522       0.5066    1427.03757       1.3522       0.5066
   1427.02231       1.3654       0.5296    1427.02231       1.3655       0.5296
   1427.00706       1.3944       0.4528    1427.00706       1.3945       0.4528
   1426.99180       1.3841       0.5159    1426.99180       1.3842       0.5159
   1426.97654       1.2959       0.5290    1426.97654       1.2960       0.5290
   1426.96128       1.3243       0.4799    1426.96128       1.3244       0.4799
   1426.94602       1.2655       0.5873    1426.94602       1.2656       0.5873
   1426.93076       1.3502       0.4852    1426.93076       1.3503       0.4852
   1426.91550       1.3107       0.4521    1426.91550       1.3107       0.4521
   1426.90024       1.3501       0.4407    1426.90024       1.3502       0.4407
   1426.88499       1.2648       0.4842    1426.88499       1.2649       0.4842
   1426.86973       1.3553       0.4844    1426.86973       1.3554       0.4844
   1426.85447       1.3371       0.5474    1426.85447       1.3372       0.5474
   1426.83921       1.3099       0.4308    1426.83921       1.3100       0.4308
   1426.82395       1.3040       0.4526    1426.82395       1.3041       0.4526
   1426.80869       1.3127       0.4353    1426.80869       1.3128       0.4353
   1426.79343       1.2829       0.5594    1426.79343       1.2830       0.5594
   1426.77817       1.2823       0.4698    1426.77817       1.2824       0.4698
   1426.76292       1.2574       0.4860    1426.76292       1.2574       0.4860
   1426.74766       1.2883       0.5336    1426.74766       1.2884       0.5336
   1426.73240       1.2861       0.4765    1426.73240       1.2862       0.4765
   1426.71714       1.2240       0.4571    1426.71714       1.2241       0.4571
   1426.70188       1.2267       0.4692    1426.70188       1.2268       0.4692
   1426.68662       1.2521       0.4725    1426.68662       1.2522       0.4725
   1426.67136       1.3186       0.4915    1426.67136       1.3187       0.4915
   1426.65610       1.2963       0.4692    1426.65610       1.2964       0.4692
   1426.64084       1.2796       0.4894    1426.64084       1.2797       0.4894
   1426.62559       1.1983       0.4383    1426.62559       1.1984       0.4383
   1426.61033       1.2296       0.4201    1426.61033       1.2296       0.4201
   1426.59507       1.1975       0.5390    1426.59507       1.1976       0.5390
   1426.57981       1.2295       0.5304    1426.57981       1.2296       0.5304
   1426.56455       1.2489       0.4669    1426.56455       1.2490       0.4669
   1426.54929       1.2705       0.4160    1426.54929       1.2706       0.4160
   1426.53403       1.1865       0.5634    1426.53403       1.1866       0.5634
   1426.51877       1.2766       0.5366    1426.51877       1.2767       0.5366
   1426.50352       1.1516       0.5346    1426.50352       1.1516       0.5346
   1426.48826       1.1625       0.4864    1426.48826       1.1626       0.4864
   1426.47300       1.1953       0.4943    1426.47300       1.1954       0.4943
   1426.45774       1.2572       0.5625    1426.45774       1.2573       0.5625
   1426.44248       1.1804       0.5467    1426.44248       1.1805       0.5467
   1426.42722       1.1176       0.5703    1426.42722       1.1177       0.5703
   1426.41196       1.2231       0.4728    1426.41196       1.2231       0.4728
   1426.39670       1.1998       0.5235    1426.39670       1.1999       0.5235
   1426.38145       1.1719       0.5720    1426.38145       1.1720       0.5720
   1426.36619       1.1580       0.5515    1426.36619       1.1581       0.5515
   1426.35093       1.1549       0.5970    1426.35093       1.1550       0.5970
   1426.33567       1.2291       0.4757    1426.33567       1.2292       0.4757
   1426.32041       1.1296       0.5769    1426.32041       1.1297       0.5769
   1426.30515       1.1067       0.5162    1426.30515       1.1068       0.5162
   1426.28989       1.1340       0.5990    1426.28989       1.1341       0.5990
   1426.27463       1.0962       0.5479    1426.27463       1.0963       0.5479
   1426.25937       1.1230       0.5221    1426.25937       1.1231       0.5221
   1426.24412       1.1952       0.5298    1426.24412       1.1953       0.5298
   1426.22886       1.1635       0.5741    1426.22886       1.1636       0.5741
   1426.21360       1.0950       0.6339    1426.21360       1.0951       0.6339
   1426.19834       1.1078       0.5100    1426.19834       1.1078       0.5100
   1426.18308       1.0882       0.5625    1426.18308       1.0883       0.5625
   1426.16782       1.0879       0.5036    1426.16782       1.0880       0.5036
   1426.15256       1.0079       0.5603    1426.15256       1.0080       0.5603
   1426.13730       1.0641       0.6620    1426.13730       1.0642       0.6620
   1426.12205       0.9495       0.5682    1426.12205       0.9496       0.5682
   1426.10679       1.0566       0.5301    1426.10679       1.0567       0.5301
   1426.09153       1.0673       0.5934    1426.09153       1.0674       0.5934
   1426.07627       1.0760       0.5532    1426.07627       1.0761       0.5532
   1426.06101       1.0526       0.6117    1426.06101       1.0527       0.6117
   1426.04575       1.0485       0.6436    1426.04575       1.0486       0.6436
   1426.03049       0.9679       0.6236    1426.03049       0.9679       0.6236
   1426.01523       0.9991       0.5890    1426.01523       0.9992       0.5890
   1425.99998       1.0318       0.5393    1425.99998       1.0319       0.5393
   1425.98472       1.0063       0.5828    1425.98472       1.0064       0.5828
   1425.96946       0.9568       0.5613    1425.96946       0.9569       0.5613
   1425.95420       0.9705       0.6398    1425.95420       0.9706       0.6398
   1425.93894       1.0405       0.6253    1425.93894       1.0406       0.6253
   1425.92368       0.9833       0.6196    1425.92368       0.9834       0.6196
   1425.90842       0.9540       0.6711    1425.90842       0.9541       0.6711
   1425.89316       1.0143       0.6021    1425.89316       1.0143       0.6021
   1425.87791       1.0695       0.6144    1425.87791       1.0696       0.6144
   1425.86265       1.0707       0.6522    1425.86265       1.0708       0.6522
   1425.84739       1.0350       0.6298    1425.84739       1.0351       0.6298
   1425.83213       0.9697       0.6230    1425.83213       0.9698       0.6230
   1425.81687       0.9511       0.6337    1425.81687       0.9511       0.6337
   1425.80161       0.9586       0.6510    1425.80161       0.9586       0.6510
   1425.78635       0.9185       0.6196    1425.78635       0.9185       0.6196
   1425.77109       0.9521       0.6593    1425.77109       0.9521       0.6593
   1425.75583       0.9525       0.6153    1425.75583       0.9526       0.6153
   1425.74058       0.8804       0.6523    1425.74058       0.8805       0.6523
   1425.72532       0.8837       0.7178    1425.72532       0.8838       0.7178
   1425.71006       0.8387       0.6481    1425.71006       0.8388       0.6481
   1425.69480       0.9177       0.5937    1425.69480       0.9177       0.5937
   1425.67954       0.9387       0.6203    1425.67954       0.9387       0.6203
   1425.66428       0.8899       0.7369    1425.66428       0.8900       0.7369
   1425.64902       0.8394       0.7339    1425.64902       0.8394       0.7339
   1425.63376       0.8287       0.6413    1425.63376       0.8288       0.6413
   1425.61851       0.9144       0.6096    1425.61851       0.9145       0.6096
   1425.60325       0.8941       0.8194    1425.60325       0.8941       0.8194
   1425.58799       0.8624       0.6768    1425.58799       0.8625       0.6768
   1425.57273       0.8357       0.6324    1425.57273       0.8358       0.6324
   1425.55747       0.8681       0.6512    1425.55747       0.8682       0.6512
   1425.54221       0.8813       0.6203    1425.54221       0.8814       0.6203
   1425.52695       0.8592       0.7321    1425.52695       0.8593       0.7321
   1425.51169       0.8468       0.6569    1425.51169       0.8468       0.6569
   1425.49644       0.8040       0.7257    1425.49644       0.8041       0.7257
   1425.48118       0.8097       0.6428    1425.48118       0.8098       0.6428
   1425.46592       0.8243       0.7597    1425.46592       0.8243       0.7597
   1425.45066       0.8242       0.8065    1425.45066       0.8242       0.8065
   1425.43540       0.8297       0.7304    1425.43540       0.8298       0.7304
   1425.42014       0.7655       0.7265    1425.42014       0.7655       0.7265
   1425.40488       0.8346       0.7692    1425.40488       0.8347       0.7692
   1425.38962       0.7558       0.6731    1425.38962       0.7559       0.6731
   1425.37437       0.7977       0.7038    1425.37437       0.7978       0.7038
   1425.35911       0.7626       0.7926    1425.35911       0.7626       0.7926
   1425.34385       0.7597       0.7242    1425.34385       0.7597       0.7242
   1425.32859       0.7257       0.7946    1425.32859       0.7257       0.7946
   1425.31333       0.7167       0.7355    1425.31333       0.7167       0.7355
   1425.29807       0.7196       0.8495    1425.29807       0.7197       0.8495
   1425.28281       0.7380       0.7562    1425.28281       0.7380       0.7562
   1425.26755       0.8111       0.7234    1425.26755       0.8111       0.7234
   1425.25229       0.7486       0.8209    1425.25229       0.7487       0.8209
   1425.23704       0.7109       0.8352    1425.23704       0.7109       0.8352
   1425.22178       0.7481       0.8007    1425.22178       0.7482       0.8007
   1425.20652       0.7111       0.8015    1425.20652       0.7111       0.8015
   1425.19126       0.7229       0.8321    1425.19126       0.7230       0.8321
   1425.17600       0.7179       0.7410    1425.17600       0.7179       0.7410
   1425.16074       0.6873       0.7582    1425.16074       0.6874       0.7582
   1425.14548       0.7139       0.8211    1425.14548       0.7140       0.8211
   1425.13022       0.7306       0.7147    1425.13022       0.7307       0.7147
   1425.11497       0.6706       0.7954    1425.11497       0.6707       0.7954
   1425.09971       0.7002       0.7899    1425.09971       0.7002       0.7899
   1425.08445       0.6917       0.7843    1425.08445       0.6918       0.7843
   1425.06919       0.6704       0.8046    1425.06919       0.6705       0.8046
   1425.05393       0.6613       0.9062    1425.05393       0.6613       0.9062
   1425.03867       0.6512       0.8747    1425.03867       0.6513       0.8747
   1425.02341       0.6027       0.8174    1425.02341       0.6028       0.8174
   1425.00815       0.6352       0.8071    1425.00815       0.6353       0.8071
   1424.99290       0.6309       0.8522    1424.99290       0.6310       0.8522
   1424.97764       0.6493       0.7788    1424.97764       0.6493       0.7788
   1424.96238       0.6824       0.8314    1424.96238       0.6824       0.8314
   1424.94712       0.6135       0.8331    1424.94712       0.6136       0.8331
   1424.93186       0.5591       0.8213    1424.93186       0.5591       0.8213
   1424.91660       0.6382       0.8574    1424.91660       0.6383       0.8574
   1424.90134       0.6191       0.7999    1424.90134       0.6192       0.7999
   1424.88608       0.5646       0.7821    1424.88608       0.5646       0.7821
   1424.87083       0.6068       0.7839    1424.87083       0.6068       0.7839
   1424.85557       0.5778       0.7532    1424.85557       0.5779       0.7532
   1424.84031       0.6230       0.8049    1424.84031       0.6230       0.8049
   1424.82505       0.5904       0.8484    1424.82505       0.5904       0.8484
   1424.80979       0.5383       0.8121    1424.80979       0.5384       0.8121
   1424.79453       0.5923       0.8602    1424.79453       0.5923       0.8602
   1424.77927       0.5454       0.8486    1424.77927       0.5454       0.8486
   1424.76401       0.5212       0.8509    1424.76401       0.5213       0.8509
   1424.74875       0.5073       0.8946    1424.74875       0.5074       0.8946
   1424.73350       0.5487       0.9267    1424.73350       0.5488       0.9267
   1424.71824       0.5358       0.8700    1424.71824       0.5359       0.8700
   1424.70298       0.5258       0.8635    1424.70298       0.5258       0.8635
   1424.68772       0.5255       0.9200    1424.68772       0.5255       0.9200
   1424.67246       0.4902       0.8640    1424.67246       0.4902       0.8640
   1424.65720       0.4867       0.8779    1424.65720       0.4867       0.8779
   1424.64194       0.5371       0.8891    1424.64194       0.5371       0.8891
   1424.62668       0.4955       0.9307    1424.62668       0.4955       0.9307
   1424.61143       0.5188       0.8640    1424.61143       0.5188       0.8640
   1424.59617       0.5385       0.8660    1424.59617       0.5385       0.8660
   1424.58091       0.4349       0.8774    1424.58091       0.4350       0.8774
   1424.56565       0.5177       0.9576    1424.56565       0.5177       0.9576
   1424.55039       0.5066       0.9398    1424.55039       0.5067       0.9398
   1424.53513       0.5057       0.8674    1424.53513       0.5058       0.8674
   1424.51987       0.4245       0.9735    1424.51987       0.4245       0.9735
   1424.50461       0.4641       0.9677    1424.50461       0.4642       0.9677
   1424.48936       0.4552       0.8944    1424.48936       0.4552       0.8944
   1424.47410       0.4113       0.9367    1424.47410       0.4113       0.9367
   1424.45884       0.4055       0.9590    1424.45884       0.4055       0.9590
   1424.44358       0.4272       1.0033    1424.44358       0.4273       1.0033
   1424.42832       0.4338       0.8709    1424.42832       0.4338       0.8709
   1424.41306       0.4253       0.9288    1424.41306       0.4253       0.9288
   1424.39780       0.4214       0.9815    1424.39780       0.4214       0.9815
   1424.38254       0.3992       0.9791    1424.38254       0.3992       0.9791
   1424.36729       0.4446       1.0792    1424.36729       0.4446       1.0792
   1424.35203       0.4228       1.0746    1424.35203       0.4228       1.0746
   1424.33677       0.3904       0.9631    1424.33677       0.3904       0.9631
   1424.32151       0.3650       0.9230    1424.32151       0.3650       0.9230
   1424.30625       0.3701       1.0120    1424.30625       0.3701       1.0120
   1424.29099       0.4008       0.9887    1424.29099       0.4008       0.9887
   1424.27573       0.3674       1.0039    1424.27573       0.3675       1.0039
   1424.26047       0.4692       1.0094    1424.26047       0.4693       1.0094
   1424.24521       0.3570       1.0140    1424.24521       0.3570       1.0140
   1424.22996       0.3475       1.0087    1424.22996       0.3475       1.0087
   1424.21470       0.4230       0.9280    1424.21470       0.4230       0.9280
   1424.19944       0.3613       0.9889    1424.19944       0.3613       0.9889
   1424.18418       0.3711       1.0295    1424.18418       0.3711       1.0295
   1424.16892       0.3046       1.0310    1424.16892       0.3046       1.0310
   1424.15366       0.3504       1.0283    1424.15366       0.3504       1.0283
   1424.13840       0.3226       0.9921    1424.13840       0.3226       0.9921
   1424.12314       0.2713       1.0235    1424.12314       0.2713       1.0235
   1424.10789       0.2918       1.0605    1424.10789       0.2918       1.0605
   1424.09263       0.3273       1.0797    1424.09263       0.3273       1.0797
   1424.07737       0.3238       1.0235    1424.07737       0.3238       1.0235
   1424.06211       0.3626       1.1629    1424.06211       0.3626       1.1629
   1424.04685       0.2761       1.0194    1424.04685       0.2761       1.0194
   1424.03159       0.2434       1.0230    1424.03159       0.2435       1.0230
   1424.01633       0.3045       1.0449    1424.01633       0.3046       1.0449
   1424.00107       0.2965       1.0325    1424.00107       0.2965       1.0325
   1423.98582       0.2837       1.0621    1423.98582       0.2837       1.0621
   1423.97056       0.2491       1.0750    1423.97056       0.2491       1.0750
   1423.95530       0.2952       1.1006    1423.95530       0.2952       1.1006
   1423.94004       0.2607       1.1214    1423.94004       0.2607       1.1214
   1423.92478       0.2856       1.0490    1423.92478       0.2856       1.0490
   1423.90952       0.2826       0.9805    1423.90952       0.2826       0.9805
   1423.89426       0.2769       1.0935    1423.89426       0.2769       1.0935
   1423.87900       0.2941       1.0778    1423.87900       0.2941       1.0778
   1423.86375       0.3006       1.1292    1423.86375       0.3007       1.1292
   1423.84849       0.2287       1.0718    1423.84849       0.2287       1.0718
   1423.83323       0.1730       1.0497    1423.83323       0.1730       1.0497
   1423.81797       0.2220       1.0739    1423.81797       0.2220       1.0739
   1423.80271       0.2184       1.1069    1423.80271       0.2184       1.1069
   1423.78745       0.2159       1.0770    1423.78745       0.2160       1.0770
   1423.77219       0.1818       1.1185    1423.77219       0.1818       1.1185
   1423.75693       0.1540       1.1233    1423.75693       0.1540       1.1233
   1423.74167       0.2196       1.1268    1423.74167       0.2196       1.1268
   1423.72642       0.2628       1.0966    1423.72642       0.2628       1.0966
   1423.71116       0.2245       1.1717    1423.71116       0.2245       1.1717
   1423.69590       0.2160       1.0862    1423.69590       0.2161       1.0862
   1423.68064       0.2114       1.1607    1423.68064       0.2114       1.1607
   1423.66538       0.2745       1.1052    1423.66538       0.2745       1.1052
   1423.65012       0.2449       1.1173    1423.65012       0.2449       1.1173
   1423.63486       0.1776       1.1577    1423.63486       0.1776       1.1577
   1423.61960       0.1982       1.1649    1423.61960       0.1982       1.1649
   1423.60435       0.2353       1.1809    1423.60435       0.2353       1.1809
   1423.58909       0.1954       1.1818    1423.58909       0.1954       1.1818
   1423.57383       0.2271       1.1642    1423.57383       0.2272       1.1642
   1423.55857       0.1992       1.2033    1423.55857       0.1992       1.2033
   1423.54331       0.1484       1.1802    1423.54331       0.1484       1.1802
   1423.52805       0.2010       1.1664    1423.52805       0.2010       1.1664
   1423.51279       0.1904       1.1755    1423.51279       0.1904       1.1755
   1423.49753       0.1559       1.1840    1423.49753       0.1559       1.1840
   1423.48228       0.2202       1.1521    1423.48228       0.2203       1.1521
   1423.46702       0.1762       1.1948    1423.46702       0.1762       1.1948
   1423.45176       0.1479       1.1938    1423.45176       0.1479       1.1938
   1423.43650       0.1768       1.1656    1423.43650       0.1768       1.1656
   1423.42124       0.1210       1.1824    1423.42124       0.1210       1.1824
   1423.40598       0.1530       1.1953    1423.40598       0.1530       1.1953
   1423.39072       0.1703       1.1525    1423.39072       0.1703       1.1525
   1423.37546       0.1612       1.2286    1423.37546       0.1612       1.2286
   1423.36021       0.1679       1.1781    1423.36021       0.1679       1.1781
   1423.34495       0.1686       1.1805    1423.34495       0.1686       1.1805
   1423.32969       0.1037       1.0908    1423.32969       0.1037       1.0908
   1423.31443       0.1080       1.2378    1423.31443       0.1080       1.2378
   1423.29917       0.1785       1.1175    1423.29917       0.1785       1.1175
   1423.28391       0.1478       1.1788    1423.28391       0.1479       1.1788
   1423.26865       0.1617       1.2164    1423.26865       0.1617       1.2164
   1423.25339       0.1138       1.1983    1423.25339       0.1138       1.1983
   1423.23813       0.1547       1.2302    1423.23813       0.1547       1.2302
   1423.22288       0.1216       1.2279    1423.22288       0.1216       1.2279
   1423.20762       0.1205       1.2136    1423.20762       0.1205       1.2136
   1423.19236       0.1357       1.2618    1423.19236       0.1357       1.2618
   1423.17710       0.1277       1.2327    1423.17710       0.1277       1.2327
   1423.16184       0.1309       1.2780    1423.16184       0.1309       1.2780
   1423.14658       0.1165       1.2127    1423.14658       0.1165       1.2127
   1423.13132       0.1116       1.1833    1423.13132       0.1116       1.1833
   1423.11606       0.1993       1.3002    1423.11606       0.1993       1.3002
   1423.10081       0.1410       1.2425    1423.10081       0.1410       1.2425
   1423.08555       0.1576       1.2747    1423.08555       0.1576       1.2747
   1423.07029       0.0963       1.2541    1423.07029       0.0963       1.2541
   1423.05503       0.1162       1.2690    1423.05503       0.1162       1.2690
   1423.03977       0.1438       1.2316    1423.03977       0.1438       1.2316
   1423.02451       0.0776       1.2133    1423.02451       0.0776       1.2133
   1423.00925       0.0614       1.3060    1423.00925       0.0614       1.3060
   1422.99399       0.1255       1.3039    1422.99399       0.1255       1.3040
   1422.97874       0.1303       1.2910    1422.97874       0.1303       1.2910
   1422.96348       0.1488       1.3119    1422.96348       0.1488       1.3119
   1422.94822       0.1256       1.2948    1422.94822       0.1256       1.2948
   1422.93296       0.1471       1.2736    1422.93296       0.1471       1.2736
   1422.91770       0.1331       1.3123    1422.91770       0.1331       1.3123
   1422.90244       0.1952       1.3725    1422.90244       0.1952       1.3725
   1422.88718       0.1776       1.3472    1422.88718       0.1776       1.3472
   1422.87192       0.2797       1.4931    1422.87192       0.2797       1.4931
   1422.85667       0.3345       1.5601    1422.85667       0.3345       1.5601
   1422.84141       0.4509       1.6732    1422.84141       0.4510       1.6732
   1422.82615       0.4685       1.7348    1422.82615       0.4686       1.7348
   1422.81089       0.4505       1.8215    1422.81089       0.4505       1.8215
   1422.79563       0.5634       1.8229    1422.79563       0.5635       1.8229
   1422.78037       0.5328       1.8046    1422.78037       0.5329       1.8046
   1422.76511       0.4794       1.6987    1422.76511       0.4794       1.6987
   1422.74985       0.4421       1.6294    1422.74985       0.4421       1.6294
   1422.73459       0.3149       1.5383    1422.73459       0.3149       1.5383
   1422.71934       0.2281       1.4096    1422.71934       0.2281       1.4096
   1422.70408       0.2220       1.3411    1422.70408       0.2220       1.3411
   1422.68882       0.1989       1.3884    1422.68882       0.1989       1.3884
   1422.67356       0.1519       1.3185    1422.67356       0.1519       1.3185
   1422.65830       0.0840       1.3674    1422.65830       0.0840       1.3674
   1422.64304       0.1511       1.2957    1422.64304       0.1511       1.2957
   1422.62778       0.0737       1.3102    1422.62778       0.0737       1.3102
   1422.61252       0.1362       1.3697    1422.61252       0.1362       1.3697
   1422.59727       0.0889       1.3549    1422.59727       0.0889       1.3549
   1422.58201       0.1584       1.3291    1422.58201       0.1584       1.3291
   1422.56675       0.1120       1.2587    1422.56675       0.1120       1.2587
   1422.55149       0.1173       1.2708    1422.55149       0.1173       1.2708
   1422.53623       0.0857       1.3023    1422.53623       0.0857       1.3023
   1422.52097       0.0957       1.2515    1422.52097       0.0957       1.2515
   1422.50571       0.0668       1.3338    1422.50571       0.0668       1.3338
   1422.49045       0.0712       1.2951    1422.49045       0.0712       1.2951
   1422.47520       0.0755       1.2552    1422.47520       0.0755       1.2552
   1422.45994       0.0878       1.2291    1422.45994       0.0878       1.2291
   1422.44468       0.0901       1.2793    1422.44468       0.0901       1.2793
   1422.42942       0.1187       1.2799    1422.42942       0.1187       1.2799
   1422.41416       0.0694       1.2860    1422.41416       0.0694       1.2860
   1422.39890       0.0858       1.3037    1422.39890       0.0858       1.3037
   1422.38364       0.0703       1.2770    1422.38364       0.0703       1.2770
   1422.36838       0.1024       1.2053    1422.36838       0.1024       1.2053
   1422.35312       0.1256       1.2541    1422.35312       0.1256       1.2541
   1422.33787       0.1091       1.3019    1422.33787       0.1091       1.3019
   1422.32261       0.0688       1.2090    1422.32261       0.0688       1.2090
   1422.30735       0.0701       1.2415    1422.30735       0.0701       1.2415
   1422.29209       0.1234       1.2727    1422.29209       0.1234       1.2727
   1422.27683       0.0521       1.2398    1422.27683       0.0521       1.2398
   1422.26157       0.1017       1.2620    1422.26157       0.1017       1.2620
   1422.24631       0.0326       1.2584    1422.24631       0.0326       1.2584
   1422.23105       0.1127       1.2500    1422.23105       0.1127       1.2500
   1422.21580       0.0672       1.2609    1422.21580       0.0672       1.2609
   1422.20054       0.1300       1.2484    1422.20054       0.1301       1.2484
   1422.18528       0.0304       1.2216    1422.18528       0.0304       1.2216
   1422.17002       0.0899       1.2696    1422.17002       0.0899       1.2696
   1422.15476       0.0776       1.2121    1422.15476       0.0776       1.2121
   1422.13950       0.1108       1.2621    1422.13950       0.1108       1.2621
   1422.12424       0.1631       1.1682    1422.12424       0.1631       1.1682
   1422.10898       0.1711       1.2191    1422.10898       0.1711       1.2191
   1422.09373       0.0565       1.3098    1422.09373       0.0565       1.3098
   1422.07847       0.0539       1.2279    1422.07847       0.0539       1.2279
   1422.06321       0.1163       1.3019    1422.06321       0.1163       1.3019
   1422.04795       0.0326       1.2084    1422.04795       0.0326       1.2084
   1422.03269       0.0828       1.2916    1422.03269       0.0828       1.2916
   1422.01743       0.1103       1.2175    1422.01743       0.1104       1.2175
   1422.00217       0.0761       1.3133    1422.00217       0.0761       1.3133
   1421.98691       0.0940       1.2102    1421.98691       0.0940       1.2102
   1421.97166       0.0978       1.2108    1421.97166       0.0978       1.2108
   1421.95640       0.0935       1.2317    1421.95640       0.0935       1.2317
   1421.94114       0.0867       1.2126    1421.94114       0.0867       1.2126
   1421.92588       0.1167       1.2004    1421.92588       0.1167       1.2004
   1421.91062       0.0972       1.1978    1421.91062       0.0972       1.1978
   1421.89536       0.0999       1.1745    1421.89536       0.0999       1.1745
   1421.88010       0.1259       1.2646    1421.88010       0.1259       1.2647
   1421.86484       0.1111       1.2397    1421.86484       0.1111       1.2397
   1421.84958       0.0867       1.2148    1421.84958       0.0867       1.2148
   1421.83433       0.0652       1.1615    1421.83433       0.0652       1.1615
   1421.81907       0.1073       1.1550    1421.81907       0.1073       1.1550
   1421.80381       0.0898       1.1866    1421.80381       0.0898       1.1866
   1421.78855       0.2100       1.1717    1421.78855       0.2100       1.1717
   1421.77329       0.1111       1.1464    1421.77329       0.1111       1.1464
   1421.75803       0.1174       1.2323    1421.75803       0.1174       1.2323
   1421.74277       0.1428       1.2402    1421.74277       0.1428       1.2402
   1421.72751       0.1001       1.1524    1421.72751       0.1001       1.1524
   1421.71226       0.0886       1.2459    1421.71226       0.0886       1.2459
   1421.69700       0.1401       1.1658    1421.69700       0.1401       1.1658
   1421.68174       0.2035       1.1296    1421.68174       0.2035       1.1296
   1421.66648       0.1516       1.1712    1421.66648       0.1516       1.1712
   1421.65122       0.0700       1.2051    1421.65122       0.0700       1.2051
   1421.63596       0.1305       1.1806    1421.63596       0.1305       1.1806
   1421.62070       0.1424       1.2213    1421.62070       0.1424       1.2213
   1421.60544       0.1410       1.1001    1421.60544       0.1411       1.1001
   1421.59019       0.1443       1.1618    1421.59019       0.1443       1.1618
   1421.57493       0.1587       1.1842    1421.57493       0.1587       1.1842
   1421.55967       0.2144       1.1838    1421.55967       0.2144       1.1838
   1421.54441       0.1624       1.2097    1421.54441       0.1624       1.2097
   1421.52915       0.1951       1.2018    1421.52915       0.1951       1.2018
   1421.51389       0.1367       1.1097    1421.51389       0.1367       1.1097
   1421.49863       0.0838       1.1736    1421.49863       0.0838       1.1736
   1421.48337       0.1113       1.1764    1421.48337       0.1113       1.1764
   1421.46812       0.2030       1.1501    1421.46812       0.2030       1.1501
   1421.45286       0.2219       1.1206    1421.45286       0.2220       1.1206
   1421.43760       0.1821       1.1571    1421.43760       0.1821       1.1571
   1421.42234       0.1822       1.1056    1421.42234       0.1823       1.1056
   1421.40708       0.2021       1.1477    1421.40708       0.2021       1.1477
   1421.39182       0.1675       1.1731    1421.39182       0.1675       1.1731
   1421.37656       0.1056       1.1882    1421.37656       0.1057       1.1882
   1421.36130       0.1755       1.0987    1421.36130       0.1755       1.0987
   1421.34604       0.1600       1.0961    1421.34604       0.1600       1.0961
   1421.33079       0.1905       1.1433    1421.33079       0.1905       1.1433
   1421.31553       0.1576       1.2039    1421.31553       0.1576       1.2039
   1421.30027       0.2156       1.1386    1421.30027       0.2156       1.1386
   1421.28501       0.2441       1.1094    1421.28501       0.2441       1.1094
   1421.26975       0.1688       1.0864    1421.26975       0.1688       1.0864
   1421.25449       0.1901       1.0967    1421.25449       0.1902       1.0967
   1421.23923       0.1958       1.1448    1421.23923       0.1958       1.1448
   1421.22397       0.2436       1.1370    1421.22397       0.2436       1.1370
   1421.20872       0.2655       1.0654    1421.20872       0.2655       1.0654
   1421.19346       0.2301       1.1171    1421.19346       0.2301       1.1171
   1421.17820       0.2158       1.0764    1421.17820       0.2158       1.0764
   1421.16294       0.1750       1.0780    1421.16294       0.1750       1.0780
   1421.14768       0.2680       0.9913    1421.14768       0.2681       0.9914
   1421.13242       0.2815       1.0433    1421.13242       0.2815       1.0433
   1421.11716       0.2576       1.0267    1421.11716       0.2576       1.0267
   1421.10190       0.2635       1.1003    1421.10190       0.2635       1.1003
   1421.08665       0.2328       1.1279    1421.08665       0.2328       1.1279
   1421.07139       0.2161       1.0590    1421.07139       0.2162       1.0590
   1421.05613       0.2653       1.0686    1421.05613       0.2653       1.0686
   1421.04087       0.2826       1.0753    1421.04087       0.2826       1.0753
   1421.02561       0.2509       1.1284    1421.02561       0.2509       1.1284
   1421.01035       0.3241       1.0997    1421.01035       0.3241       1.0997
   1420.99509       0.2513       1.0152    1420.99509       0.2513       1.0152
   1420.97983       0.2832       1.0866    1420.97983       0.2832       1.0866
   1420.96458       0.2406       1.0616    1420.96458       0.2406       1.0616
   1420.94932       0.2474       1.0603    1420.94932       0.2474       1.0603
   1420.93406       0.2301       1.0122    1420.93406       0.2301       1.0122
   1420.91880       0.2177       1.0176    1420.91880       0.2177       1.0176
   1420.90354       0.3366       1.0108    1420.90354       0.3366       1.0108
   1420.88828       0.2775       1.0586    1420.88828       0.2775       1.0586
   1420.87302       0.2878       0.9104    1420.87302       0.2878       0.9104
   1420.85776       0.2995       0.9771    1420.85776       0.2995       0.9771
   1420.84250       0.2478       0.9568    1420.84250       0.2478       0.9568
   1420.82725       0.2697       1.0060    1420.82725       0.2697       1.0060
   1420.81199       0.2194       0.9660    1420.81199       0.2194       0.9660
   1420.79673       0.1958       0.9360    1420.79673       0.1958       0.9360
   1420.78147       0.3591       1.0462    1420.78147       0.3591       1.0462
   1420.76621       0.3139       0.9479    1420.76621       0.3139       0.9479
   1420.75095       0.3512       1.0961    1420.75095       0.3512       1.0961
   1420.73569       0.3164       1.0896    1420.73569       0.3164       1.0896
   1420.72043       0.3494       1.0855    1420.72043       0.3495       1.0855
   1420.70518       0.3896       1.0908    1420.70518       0.3897       1.0908
   1420.68992       0.3975       1.1202    1420.68992       0.3975       1.1202
   1420.67466       0.3858       0.9462    1420.67466       0.3858       0.9462
   1420.65940       0.4499       1.0744    1420.65940       0.4499       1.0744
   1420.64414       0.5274       1.2284    1420.64414       0.5274       1.2284
   1420.62888       0.5960       1.3159    1420.62888       0.5960       1.3159
   1420.61362       0.5982       1.3592    1420.61362       0.5983       1.3592
   1420.59836       0.6678       1.2744    1420.59836       0.6679       1.2744
   1420.58311       0.6613       1.3867    1420.58311       0.6614       1.3867
   1420.56785       0.4678       1.1411    1420.56785       0.4678       1.1411
   1420.55259       0.3453       0.9097    1420.55259       0.3453       0.9097
   1420.53733       0.0635       0.5581    1420.53733       0.0635       0.5581
   1420.52207      -0.1071       0.2859    1420.52207      -0.1071       0.2859
   1420.50681      -0.3995      -0.0244    1420.50681      -0.3995      -0.0244
   1420.49155      -0.7220      -0.4531    1420.49155      -0.7220      -0.4531
   1420.47629      -0.8304      -0.5235    1420.47629      -0.8304      -0.5235
   1420.46104      -0.7874      -0.4743    1420.46104      -0.7874      -0.4743
   1420.44578      -1.1514      -1.0106    1420.44578      -1.1515      -1.0106
   1420.43052      -2.2046      -2.0138    1420.43052      -2.2047      -2.0138
   1420.41526      -1.5569      -2.0473    1420.41526      -1.5570      -2.0473
   1420.40000      -3.0608      -3.5225    1420.40000      -3.0610      -3.5225
   1420.38474      -1.6309      -1.4485    1420.38474      -1.6310      -1.4486
   1420.36948       1.2979       2.3358    1420.36948       1.2980       2.3358
   1420.35422       2.6158       3.9812    1420.35422       2.6159       3.9812
   1420.33896       0.7052       1.3176    1420.33896       0.7052       1.3176
   1420.32371       0.9019       1.5239    1420.32371       0.9020       1.5239
   1420.30845       0.7542       1.3467    1420.30845       0.7542       1.3467
   1420.29319       0.5087       1.0704    1420.29319       0.5088       1.0704
   1420.27793       0.4367       0.8970    1420.27793       0.4367       0.8970
   1420.26267       0.3967       0.7764    1420.26267       0.3967       0.7764
   1420.24741       0.4011       0.7901    1420.24741       0.4012       0.7901
   1420.23215       0.4392       0.8843    1420.23215       0.4392       0.8843
   1420.21689       0.4319       0.7953    1420.21689       0.4320       0.7953
   1420.20164       0.4675       0.8607    1420.20164       0.4676       0.8607
   1420.18638       0.4129       0.8827    1420.18638       0.4129       0.8827
   1420.17112       0.4370       0.8539    1420.17112       0.4370       0.8539
   1420.15586       0.4486       0.7753    1420.15586       0.4487       0.7753
   1420.14060       0.4501       0.8455    1420.14060       0.4502       0.8455
   1420.12534       0.4772       0.8381    1420.12534       0.4772       0.8381
   1420.11008       0.4955       0.8498    1420.11008       0.4955       0.8498
   1420.09482       0.4815       0.8345    1420.09482       0.4816       0.8345
   1420.07957       0.4999       0.8127    1420.07957       0.5000       0.8127
   1420.06431       0.4683       0.8789    1420.06431       0.4683       0.8789
   1420.04905       0.4688       0.8480    1420.04905       0.4688       0.8480
   1420.03379       0.4567       0.8477    1420.03379       0.4568       0.8477
   1420.01853       0.4601       0.8376    1420.01853       0.4601       0.8376
   1420.00327       0.4500       0.8019    1420.00327       0.4501       0.8019
   1419.98801       0.4595       0.7810    1419.98801       0.4596       0.7810
   1419.97275       0.4844       0.8437    1419.97275       0.4845       0.8437
   1419.95750       0.4652       0.8441    1419.95750       0.4653       0.8441
   1419.94224       0.5278       0.8496    1419.94224       0.5278       0.8496
   1419.92698       0.5829       0.8156    1419.92698       0.5830       0.8156
   1419.91172       0.5586       0.7629    1419.91172       0.5586       0.7629
   1419.89646       0.5257       0.7554    1419.89646       0.5257       0.7554
   1419.88120       0.5293       0.7699    1419.88120       0.5294       0.7699
   1419.86594       0.5244       0.8000    1419.86594       0.5244       0.8000
   1419.85068       0.5393       0.8002    1419.85068       0.5393       0.8002
   1419.83542       0.5496       0.7073    1419.83542       0.5497       0.7073
   1419.82017       0.5225       0.8407    1419.82017       0.5226       0.8407
   1419.80491       0.5621       0.7920    1419.80491       0.5621       0.7920
   1419.78965       0.5987       0.7930    1419.78965       0.5987       0.7930
   1419.77439       0.5618       0.8225    1419.77439       0.5618       0.8225
   1419.75913       0.5755       0.8460    1419.75913       0.5755       0.8460
   1419.74387       0.5570       0.8140    1419.74387       0.5570       0.8140
   1419.72861       0.5259       0.8319    1419.72861       0.5260       0.8319
   1419.71335       0.5966       0.7134    1419.71335       0.5966       0.7134
   1419.69810       0.5520       0.7572    1419.69810       0.5520       0.7572
   1419.68284       0.5416       0.7747    1419.68284       0.5417       0.7747
   1419.66758       0.5964       0.7292    1419.66758       0.5964       0.7292
   1419.65232       0.6302       0.6926    1419.65232       0.6302       0.6926
   1419.63706       0.5792       0.7014    1419.63706       0.5792       0.7014
   1419.62180       0.6410       0.7140    1419.62180       0.6411       0.7140
   1419.60654       0.5968       0.6858    1419.60654       0.5968       0.6858
   1419.59128       0.6041       0.7169    1419.59128       0.6041       0.7169
   1419.57603       0.6247       0.6804    1419.57603       0.6247       0.6804
   1419.56077       0.6130       0.7693    1419.56077       0.6131       0.7693
   1419.54551       0.6090       0.7210    1419.54551       0.6090       0.7210
   1419.53025       0.6593       0.7539    1419.53025       0.6593       0.7539
   1419.51499       0.6206       0.6959    1419.51499       0.6206       0.6959
   1419.49973       0.6598       0.7003    1419.49973       0.6598       0.7003
   1419.48447       0.5874       0.7849    1419.48447       0.5874       0.7849
   1419.46921       0.6301       0.7157    1419.46921       0.6301       0.7157
   1419.45396       0.7152       0.7142    1419.45396       0.7153       0.7142
   1419.43870       0.6712       0.7150    1419.43870       0.6712       0.7150
   1419.42344       0.6417       0.7867    1419.42344       0.6418       0.7867
   1419.40818       0.6613       0.7587    1419.40818       0.6613       0.7587
   1419.39292       0.6563       0.7239    1419.39292       0.6564       0.7239
   1419.37766       0.6688       0.7445    1419.37766       0.6688       0.7445
   1419.36240       0.6412       0.7351    1419.36240       0.6413       0.7351
   1419.34714       0.6882       0.7269    1419.34714       0.6882       0.7269
   1419.33188       0.6500       0.7508    1419.33188       0.6501       0.7508
   1419.31663       0.6426       0.7505    1419.31663       0.6426       0.7505
   1419.30137       0.6616       0.7551    1419.30137       0.6617       0.7551
   1419.28611       0.6478       0.6957    1419.28611       0.6479       0.6957
   1419.27085       0.6985       0.6620    1419.27085       0.6985       0.6620
   1419.25559       0.6571       0.7466    1419.25559       0.6572       0.7466
   1419.24033       0.6964       0.6586    1419.24033       0.6965       0.6586
   1419.22507       0.7267       0.7262    1419.22507       0.7268       0.7262
   1419.20981       0.7074       0.6832    1419.20981       0.7075       0.6832
   1419.19456       0.6845       0.6829    1419.19456       0.6845       0.6829
   1419.17930       0.6695       0.7090    1419.17930       0.6696       0.7090
   1419.16404       0.7373       0.6631    1419.16404       0.7374       0.6631
   1419.14878       0.6883       0.6711    1419.14878       0.6884       0.6711
   1419.13352       0.6871       0.7397    1419.13352       0.6872       0.7397
   1419.11826       0.7047       0.6616    1419.11826       0.7048       0.6616
   1419.10300       0.7496       0.6426    1419.10300       0.7497       0.6426
   1419.08774       0.7562       0.6557    1419.08774       0.7562       0.6557
   1419.07249       0.8028       0.6296    1419.07249       0.8028       0.6296
   1419.05723       0.7708       0.7346    1419.05723       0.7708       0.7346
   1419.04197       0.7898       0.7367    1419.04197       0.7898       0.7367
   1419.02671       0.7234       0.7049    1419.02671       0.7235       0.7049
   1419.01145       0.7006       0.6701    1419.01145       0.7007       0.6701
   1418.99619       0.6955       0.6638    1418.99619       0.6955       0.6638
   1418.98093       0.7405       0.6891    1418.98093       0.7405       0.6891
   1418.96567       0.7868       0.6959    1418.96567       0.7868       0.6959
   1418.95042       0.7650       0.6295    1418.95042       0.7650       0.6295
   1418.93516       0.7999       0.6964    1418.93516       0.8000       0.6964
   1418.91990       0.7654       0.6212    1418.91990       0.7654       0.6212
   1418.90464       0.7727       0.6519    1418.90464       0.7728       0.6519
   1418.88938       0.7814       0.6065    1418.88938       0.7815       0.6065
   1418.87412       0.7509       0.6360    1418.87412       0.7509       0.6360
   1418.85886       0.7845       0.6661    1418.85886       0.7845       0.6661
   1418.84360       0.7548       0.6807    1418.84360       0.7548       0.6807
   1418.82834       0.7973       0.6791    1418.82834       0.7973       0.6791
   1418.81309       0.7567       0.6580    1418.81309       0.7568       0.6580
   1418.79783       0.7619       0.7253    1418.79783       0.7620       0.7253
   1418.78257       0.7792       0.7015    1418.78257       0.7792       0.7015
   1418.76731       0.8052       0.6770    1418.76731       0.8052       0.6770
   1418.75205       0.8002       0.6830    1418.75205       0.8002       0.6830
   1418.73679       0.8244       0.6934    1418.73679       0.8245       0.6934
   1418.72153       0.7844       0.6815    1418.72153       0.7844       0.6815
   1418.70627       0.7661       0.6535    1418.70627       0.7662       0.6535
   1418.69102       0.8022       0.6003    1418.69102       0.8022       0.6003
   1418.67576       0.7927       0.6266    1418.67576       0.7927       0.6266
   1418.66050       0.8505       0.6359    1418.66050       0.8505       0.6359
   1418.64524       0.8503       0.6980    1418.64524       0.8504       0.6980
   1418.62998       0.8153       0.6964    1418.62998       0.8154       0.6964
   1418.61472       0.7790       0.6893    1418.61472       0.7791       0.6893
   1418.59946       0.8140       0.6720    1418.59946       0.8140       0.6720
   1418.58420       0.8281       0.6693    1418.58420       0.8282       0.6693
   1418.56895       0.8424       0.6526    1418.56895       0.8425       0.6526
   1418.55369       0.8177       0.6388    1418.55369       0.8177       0.6388
   1418.53843       0.8571       0.6509    1418.53843       0.8571       0.6509
   1418.52317       0.7536       0.6277    1418.52317       0.7537       0.6277
   1418.50791       0.7870       0.6384    1418.50791       0.7870       0.6384
   1418.49265       0.8022       0.6189    1418.49265       0.8023       0.6189
   1418.47739       0.8273       0.6251    1418.47739       0.8274       0.6251
   1418.46213       0.8652       0.6389    1418.46213       0.8653       0.6389
   1418.44687       0.8412       0.6573    1418.44687       0.8413       0.6573
   1418.43162       0.8296       0.7296    1418.43162       0.8297       0.7296
   1418.41636       0.8242       0.6270    1418.41636       0.8242       0.6270
   1418.40110       0.8214       0.6266    1418.40110       0.8215       0.6266
   1418.38584       0.8880       0.6625    1418.38584       0.8881       0.6625
   1418.37058       0.8336       0.6568    1418.37058       0.8336       0.6568
   1418.35532       0.9036       0.6452    1418.35532       0.9037       0.6452
   1418.34006       0.8762       0.6067    1418.34006       0.8762       0.6067
   1418.32480       0.8513       0.6069    1418.32480       0.8514       0.6069
   1418.30955       0.8808       0.6281    1418.30955       0.8808       0.6281
   1418.29429       0.8942       0.5840    1418.29429       0.8943       0.5840
   1418.27903       0.8593       0.6445    1418.27903       0.8594       0.6445
   1418.26377       0.8424       0.6193    1418.26377       0.8424       0.6193
   1418.24851       0.8332       0.6127    1418.24851       0.8333       0.6127
   1418.23325       0.8541       0.5815    1418.23325       0.8541       0.5815
   1418.21799       0.9482       0.6490    1418.21799       0.9483       0.6490
   1418.20273       0.8691       0.6363    1418.20273       0.8691       0.6363
   1418.18748       0.8629       0.6115    1418.18748       0.8630       0.6115
   1418.17222       0.8959       0.5641    1418.17222       0.8960       0.5641
   1418.15696       0.8924       0.6818    1418.15696       0.8925       0.6818
   1418.14170       0.9272       0.6655    1418.14170       0.9273       0.6655
   1418.12644       0.8990       0.6010    1418.12644       0.8991       0.6010
   1418.11118       0.9328       0.6110    1418.11118       0.9328       0.6110
   1418.09592       0.8754       0.6472    1418.09592       0.8755       0.6472
   1418.08066       0.8648       0.5880    1418.08066       0.8648       0.5880
   1418.06541       0.9199       0.6421    1418.06541       0.9199       0.6421
   1418.05015       0.9668       0.6584    1418.05015       0.9669       0.6584
   1418.03489       0.9552       0.6606    1418.03489       0.9552       0.6606
   1418.01963       0.9452       0.6371    1418.01963       0.9452       0.6371
   1418.00437       0.9367       0.6692    1418.00437       0.9368       0.6692
   1417.98911       0.9499       0.6012    1417.98911       0.9500       0.6012
   1417.97385       0.9183       0.6782    1417.97385       0.9183       0.6782
   1417.95859       0.8603       0.6305    1417.95859       0.8603       0.6305
   1417.94333       0.8626       0.6080    1417.94333       0.8627       0.6080
   1417.92808       0.9076       0.6072    1417.92808       0.9077       0.6072
   1417.91282       0.9492       0.6427    1417.91282       0.9492       0.6427
   1417.89756       1.0240       0.6179    1417.89756       1.0241       0.6179
   1417.88230       0.9696       0.5805    1417.88230       0.9697       0.5805
   1417.86704       1.0160       0.5965    1417.86704       1.0160       0.5965
   1417.85178       0.9049       0.5976    1417.85178       0.9050       0.5976
   1417.83652       0.9521       0.6086    1417.83652       0.9521       0.6086
   1417.82126       0.9325       0.6439    1417.82126       0.9326       0.6439
   1417.80601       0.9130       0.6264    1417.80601       0.9131       0.6264
   1417.79075       0.9807       0.6196    1417.79075       0.9808       0.6196
   1417.77549       0.9268       0.6014    1417.77549       0.9269       0.6014
   1417.76023       0.9795       0.5925    1417.76023       0.9796       0.5925
   1417.74497       0.9773       0.5755    1417.74497       0.9774       0.5755
   1417.72971       0.9319       0.5908    1417.72971       0.9320       0.5908
   1417.71445       0.9366       0.6038    1417.71445       0.9366       0.6038
   1417.69919       0.9259       0.6329    1417.69919       0.9259       0.6329
   1417.68394       0.9454       0.6676    1417.68394       0.9454       0.6676
   1417.66868       1.0254       0.6036    1417.66868       1.0254       0.6036
   1417.65342       0.9935       0.6151    1417.65342       0.9935       0.6151
   1417.63816       1.0467       0.5700    1417.63816       1.0468       0.5700
   1417.62290       0.9954       0.5306    1417.62290       0.9955       0.5306
   1417.60764       0.9932       0.6193    1417.60764       0.9933       0.6193
   1417.59238       0.9736       0.6010    1417.59238       0.9737       0.6010
   1417.57712       1.0108       0.6265    1417.57712       1.0109       0.6265
   1417.56187       0.9802       0.6508    1417.56187       0.9803       0.6508
   1417.54661       0.9654       0.5796    1417.54661       0.9654       0.5796
   1417.53135       1.0359       0.6520    1417.53135       1.0360       0.6520
   1417.51609       0.9544       0.5575    1417.51609       0.9545       0.5575
   1417.50083       0.9660       0.5565    1417.50083       0.9661       0.5565
   1417.48557       0.9489       0.6267    1417.48557       0.9490       0.6267
   1417.47031       0.9735       0.6310    1417.47031       0.9736       0.6310
   1417.45505       0.9943       0.6496    1417.45505       0.9943       0.6496
   1417.43979       0.9822       0.5944    1417.43979       0.9822       0.5944
   1417.42454       1.0183       0.6076    1417.42454       1.0184       0.6076
   1417.40928       1.0338       0.6681    1417.40928       1.0339       0.6681
   1417.39402       1.0274       0.6224    1417.39402       1.0275       0.6224
   1417.37876       0.9996       0.5770    1417.37876       0.9997       0.5770
   1417.36350       0.9958       0.6625    1417.36350       0.9959       0.6625
   1417.34824       0.9822       0.6365    1417.34824       0.9822       0.6365
   1417.33298       0.9586       0.6311    1417.33298       0.9586       0.6311
   1417.31772       0.9929       0.5717    1417.31772       0.9929       0.5717
   1417.30247       0.9827       0.5578    1417.30247       0.9828       0.5578
   1417.28721       0.9799       0.6288    1417.28721       0.9800       0.6288
   1417.27195       1.0177       0.6229    1417.27195       1.0178       0.6229
   1417.25669       1.0382       0.5998    1417.25669       1.0383       0.5998
   1417.24143       0.9440       0.5657    1417.24143       0.9440       0.5657
   1417.22617       0.9381       0.6576    1417.22617       0.9381       0.6576
   1417.21091       0.9585       0.5063    1417.21091       0.9586       0.5063
   1417.19565       0.9674       0.6289    1417.19565       0.9675       0.6289
   1417.18040       1.0547       0.5806    1417.18040       1.0548       0.5806
   1417.16514       1.0125       0.6088    1417.16514       1.0126       0.6088
   1417.14988       1.0474       0.5741    1417.14988       1.0475       0.5741
   1417.13462       0.9602       0.5543    1417.13462       0.9602       0.5543
   1417.11936       1.0120       0.6028    1417.11936       1.0121       0.6028
   1417.10410       1.0177       0.5911    1417.10410       1.0178       0.5911
   1417.08884       0.9593       0.5896    1417.08884       0.9593       0.5896
   1417.07358       0.9579       0.5438    1417.07358       0.9579       0.5438
   1417.05833       1.0007       0.5436    1417.05833       1.0008       0.5436
   1417.04307       0.9962       0.6134    1417.04307       0.9963       0.6134
   1417.02781       0.9771       0.6413    1417.02781       0.9772       0.6413
   1417.01255       1.0730       0.6130    1417.01255       1.0731       0.6130
   1416.99729       1.0332       0.5225    1416.99729       1.0333       0.5225
   1416.98203       0.9973       0.5353    1416.98203       0.9973       0.5353
   1416.96677       1.0317       0.6082    1416.96677       1.0318       0.6082
   1416.95151       1.0555       0.5635    1416.95151       1.0555       0.5635
   1416.93625       1.0057       0.5691    1416.93625       1.0058       0.5691
   1416.92100       1.0443       0.6440    1416.92100       1.0443       0.6440
   1416.90574       1.0255       0.6444    1416.90574       1.0255       0.6444
   1416.89048       1.0614       0.5971    1416.89048       1.0615       0.5971
   1416.87522       1.0181       0.6018    1416.87522       1.0181       0.6018
   1416.85996       1.0239       0.5979    1416.85996       1.0239       0.5979
   1416.84470       0.9873       0.5274    1416.84470       0.9873       0.5274
   1416.82944       1.0512       0.5595    1416.82944       1.0513       0.5595
   1416.81418       1.0262       0.5788    1416.81418       1.0262       0.5788
   1416.79893       0.9955       0.6122    1416.79893       0.9956       0.6122
   1416.78367       1.0837       0.5694    1416.78367       1.0838       0.5694
   1416.76841       1.0072       0.5863    1416.76841       1.0072       0.5863
   1416.75315       1.0961       0.6046    1416.75315       1.0962       0.6046
   1416.73789       1.0205       0.6022    1416.73789       1.0206       0.6022
   1416.72263       1.0231       0.5945    1416.72263       1.0232       0.5945
   1416.70737       0.9887       0.5285    1416.70737       0.9888       0.5285
   1416.69211       1.0058       0.6275    1416.69211       1.0059       0.6275
   1416.67686       1.0023       0.5815    1416.67686       1.0023       0.5815
   1416.66160       0.9566       0.5853    1416.66160       0.9567       0.5853
   1416.64634       1.0024       0.6076    1416.64634       1.0024       0.6076
   1416.63108       1.0102       0.6316    1416.63108       1.0103       0.6316
   1416.61582       1.0083       0.5697    1416.61582       1.0083       0.5697
   1416.60056       1.1067       0.6031    1416.60056       1.1068       0.6031
   1416.58530       1.0372       0.5599    1416.58530       1.0372       0.5599
   1416.57004       1.0296       0.6212    1416.57004       1.0297       0.6212
   1416.55479       1.1014       0.5826    1416.55479       1.1015       0.5826
   1416.53953       1.0307       0.6204    1416.53953       1.0307       0.6204
   1416.52427       1.0612       0.5590    1416.52427       1.0613       0.5590
   1416.50901       1.0527       0.5205    1416.50901       1.0528       0.5205
   1416.49375       1.0280       0.5082    1416.49375       1.0281       0.5082
   1416.47849       1.1009       0.5004    1416.47849       1.1010       0.5004
   1416.46323       1.0702       0.5674    1416.46323       1.0703       0.5674
   1416.44797       1.0186       0.5227    1416.44797       1.0187       0.5227
   1416.43271       1.0519       0.5782    1416.43271       1.0520       0.5782
   1416.41746       1.0781       0.5240    1416.41746       1.0781       0.5240
   1416.40220       1.0422       0.4946    1416.40220       1.0423       0.4946
   1416.38694       1.0815       0.6118    1416.38694       1.0815       0.6118
   1416.37168       1.0145       0.5371    1416.37168       1.0146       0.5371
   1416.35642       0.9786       0.5521    1416.35642       0.9787       0.5521
   1416.34116       1.0163       0.5321    1416.34116       1.0164       0.5321
   1416.32590       1.0230       0.5664    1416.32590       1.0231       0.5664
   1416.31064       1.0509       0.5130    1416.31064       1.0510       0.5130
   1416.29539       1.0612       0.5292    1416.29539       1.0612       0.5292
   1416.28013       1.0429       0.5345    1416.28013       1.0429       0.5345
   1416.26487       1.0398       0.5683    1416.26487       1.0399       0.5683
   1416.24961       1.0324       0.5188    1416.24961       1.0325       0.5188
   1416.23435       1.0389       0.5053    1416.23435       1.0390       0.5053
   1416.21909       1.0247       0.5624    1416.21909       1.0247       0.5624
   1416.20383       1.0482       0.5764    1416.20383       1.0483       0.5764
   1416.18857       1.0764       0.5767    1416.18857       1.0764       0.5767
   1416.17332       1.0698       0.4839    1416.17332       1.0699       0.4839
   1416.15806       1.1006       0.5395    1416.15806       1.1007       0.5395
   1416.14280       1.0475       0.5426    1416.14280       1.0476       0.5426
   1416.12754       0.9906       0.5121    1416.12754       0.9906       0.5121
   1416.11228       1.0449       0.5550    1416.11228       1.0449       0.5550
   1416.09702       1.0695       0.5640    1416.09702       1.0696       0.5640
   1416.08176       1.0805       0.5312    1416.08176       1.0806       0.5312
   1416.06650       1.0573       0.4139    1416.06650       1.0574       0.4139
   1416.05125       1.1717       0.5335    1416.05125       1.1718       0.5335
   1416.03599       1.0245       0.5216    1416.03599       1.0246       0.5216
   1416.02073       1.0648       0.5344    1416.02073       1.0649       0.5344
   1416.00547       1.0976       0.5590    1416.00547       1.0976       0.5590
   1415.99021       1.0962       0.5489    1415.99021       1.0963       0.5489
   1415.97495       1.0957       0.4623    1415.97495       1.0957       0.4623
   1415.95969       1.0997       0.5088    1415.95969       1.0998       0.5088
   1415.94443       1.1550       0.5223    1415.94443       1.1551       0.5223
   1415.92917       1.1243       0.4510    1415.92917       1.1244       0.4510
   1415.91392       1.1262       0.5459    1415.91392       1.1263       0.5459
   1415.89866       1.0876       0.4537    1415.89866       1.0877       0.4537
   1415.88340       1.1266       0.5233    1415.88340       1.1267       0.5233
   1415.86814       1.0615       0.4893    1415.86814       1.0615       0.4893
   1415.85288       1.1648       0.4722    1415.85288       1.1649       0.4722
   1415.83762       1.0979       0.5087    1415.83762       1.0980       0.5087
   1415.82236       1.0821       0.5181    1415.82236       1.0822       0.5181
   1415.80710       1.1028       0.4832    1415.80710       1.1029       0.4832
   1415.79185       1.0857       0.4980    1415.79185       1.0858       0.4980
   1415.77659       1.1349       0.5116    1415.77659       1.1350       0.5116
   1415.76133       1.0814       0.4868    1415.76133       1.0815       0.4868
   1415.74607       1.1282       0.4371    1415.74607       1.1282       0.4371
   1415.73081       1.1277       0.4183    1415.73081       1.1278       0.4183
   1415.71555       1.1120       0.5544    1415.71555       1.1121       0.5544
   1415.70029       1.1169       0.5342    1415.70029       1.1170       0.5342
   1415.68503       1.0741       0.5384    1415.68503       1.0742       0.5384
   1415.66978       1.1522       0.5271    1415.66978       1.1522       0.5271
   1415.65452       1.1024       0.4733    1415.65452       1.1025       0.4733
   1415.63926       1.0791       0.5312    1415.63926       1.0791       0.5312
   1415.62400       1.1063       0.5563    1415.62400       1.1064       0.5563
   1415.60874       1.1277       0.5409    1415.60874       1.1278       0.5409
   1415.59348       1.1261       0.4980    1415.59348       1.1262       0.4980
   1415.57822       1.1609       0.5104    1415.57822       1.1609       0.5104
   1415.56296       1.1054       0.5192    1415.56296       1.1055       0.5192
   1415.54771       1.0607       0.4763    1415.54771       1.0608       0.4763
   1415.53245       1.1231       0.4495    1415.53245       1.1232       0.4495
   1415.51719       1.0943       0.4592    1415.51719       1.0944       0.4592
   1415.50193       1.1191       0.5141    1415.50193       1.1191       0.5141
   1415.48667       1.1593       0.4083    1415.48667       1.1594       0.4083
   1415.47141       1.0938       0.5098    1415.47141       1.0939       0.5098
   1415.45615       1.1511       0.4769    1415.45615       1.1512       0.4769
   1415.44089       1.1283       0.4845    1415.44089       1.1284       0.4845
   1415.42563       1.1578       0.4267    1415.42563       1.1579       0.4267
   1415.41038       1.2050       0.4731    1415.41038       1.2051       0.4731
   1415.39512       1.1457       0.5205    1415.39512       1.1458       0.5205
   1415.37986       1.1667       0.5157    1415.37986       1.1668       0.5157
   1415.36460       1.1735       0.4183    1415.36460       1.1735       0.4183
   1415.34934       1.1553       0.5136    1415.34934       1.1554       0.5136
   1415.33408       1.1375       0.5203    1415.33408       1.1376       0.5203
   1415.31882       1.1761       0.4747    1415.31882       1.1762       0.4747
   1415.30356       1.1715       0.4238    1415.30356       1.1715       0.4238
   1415.28831       1.1526       0.4187    1415.28831       1.1527       0.4187
   1415.27305       1.1756       0.5214    1415.27305       1.1756       0.5214
   1415.25779       1.1921       0.4627    1415.25779       1.1922       0.4627
   1415.24253       1.1823       0.4876    1415.24253       1.1824       0.4876
   1415.22727       1.1110       0.4618    1415.22727       1.1110       0.4618
   1415.21201       1.1514       0.5494    1415.21201       1.1515       0.5494
   1415.19675       1.1975       0.4481    1415.19675       1.1976       0.4481
   1415.18149       1.1946       0.3818    1415.18149       1.1947       0.3818
   1415.16624       1.2025       0.5047    1415.16624       1.2026       0.5047
   1415.15098       1.1945       0.4844    1415.15098       1.1946       0.4844
   1415.13572       1.1829       0.4318    1415.13572       1.1830       0.4318
   1415.12046       1.2040       0.5280    1415.12046       1.2041       0.5280
   1415.10520       1.1691       0.4435    1415.10520       1.1692       0.4435
   1415.08994       1.1905       0.4971    1415.08994       1.1906       0.4971
   1415.07468       1.1355       0.5560    1415.07468       1.1356       0.5560
   1415.05942       1.1807       0.4950    1415.05942       1.1807       0.4950
   1415.04417       1.2136       0.5134    1415.04417       1.2137       0.5134
   1415.02891       1.2346       0.5453    1415.02891       1.2347       0.5453
   1415.01365       1.2177       0.4648    1415.01365       1.2178       0.4648
   1414.99839       1.1644       0.4280    1414.99839       1.1645       0.4280
   1414.98313       1.1957       0.5148    1414.98313       1.1958       0.5148
   1414.96787       1.1352       0.5043    1414.96787       1.1353       0.5043
   1414.95261       1.1855       0.4456    1414.95261       1.1856       0.4456
   1414.93735       1.2572       0.4822    1414.93735       1.2573       0.4822
   1414.92209       1.1755       0.5117    1414.92209       1.1756       0.5117
   1414.90684       1.2174       0.4917    1414.90684       1.2175       0.4917
   1414.89158       1.2211       0.4646    1414.89158       1.2212       0.4646
   1414.87632       1.2392       0.4683    1414.87632       1.2393       0.4683
   1414.86106       1.2224       0.5231    1414.86106       1.2225       0.5231
   1414.84580       1.2374       0.5630    1414.84580       1.2375       0.5630
   1414.83054       1.2696       0.5414    1414.83054       1.2697       0.5414
   1414.81528       1.2323       0.5399    1414.81528       1.2324       0.5399
   1414.80002       1.2019       0.5039    1414.80002       1.2020       0.5039
   1414.78477       1.2526       0.5053    1414.78477       1.2527       0.5053
   1414.76951       1.1696       0.5877    1414.76951       1.1697       0.5877
   1414.75425       1.2039       0.5444    1414.75425       1.2040       0.5444
   1414.73899       1.2577       0.5093    1414.73899       1.2578       0.5093
   1414.72373       1.2635       0.5128    1414.72373       1.2636       0.5128
   1414.70847       1.2390       0.5019    1414.70847       1.2391       0.5019
   1414.69321       1.1225       0.5433    1414.69321       1.1226       0.5433
   1414.67795       1.2744       0.5370    1414.67795       1.2745       0.5370
   1414.66270       1.1741       0.5568    1414.66270       1.1742       0.5568
   1414.64744       1.2447       0.4376    1414.64744       1.2448       0.4376
   1414.63218       1.1970       0.6239    1414.63218       1.1970       0.6239
   1414.61692       1.2498       0.4865    1414.61692       1.2498       0.4865
   1414.60166       1.1994       0.4982    1414.60166       1.1994       0.4982
   1414.58640       1.1930       0.5732    1414.58640       1.1931       0.5732
   1414.57114       1.2315       0.4806    1414.57114       1.2316       0.4806
   1414.55588       1.1623       0.5695    1414.55588       1.1624       0.5695
   1414.54062       1.2251       0.5146    1414.54062       1.2251       0.5146
   1414.52537       1.1458       0.5360    1414.52537       1.1458       0.5360
   1414.51011       1.1622       0.5774    1414.51011       1.1623       0.5774
   1414.49485       1.2048       0.4660    1414.49485       1.2049       0.4660
   1414.47959       1.1549       0.5087    1414.47959       1.1550       0.5087
   1414.46433       1.1931       0.5231    1414.46433       1.1932       0.5231
   1414.44907       1.1941       0.5133    1414.44907       1.1941       0.5133
   1414.43381       1.1881       0.5851    1414.43381       1.1881       0.5851
   1414.41855       1.1793       0.4979    1414.41855       1.1794       0.4979
   1414.40330       1.2353       0.4898    1414.40330       1.2353       0.4898
   1414.38804       1.1740       0.5541    1414.38804       1.1740       0.5541
   1414.37278       1.2243       0.5148    1414.37278       1.2243       0.5148
   1414.35752       1.2930       0.5154    1414.35752       1.2931       0.5154
   1414.34226       1.2667       0.6353    1414.34226       1.2668       0.6353
   1414.32700       1.1820       0.6098    1414.32700       1.1820       0.6098
   1414.31174       1.2747       0.5331    1414.31174       1.2748       0.5331
   1414.29648       1.2685       0.5499    1414.29648       1.2686       0.5499
   1414.28123       1.2562       0.5175    1414.28123       1.2563       0.5175
   1414.26597       1.1715       0.5424    1414.26597       1.1715       0.5424
   1414.25071       1.2073       0.5425    1414.25071       1.2074       0.5425
   1414.23545       1.2347       0.4860    1414.23545       1.2348       0.4860
   1414.22019       1.2140       0.5796    1414.22019       1.2141       0.5796
   1414.20493       1.3040       0.6181    1414.20493       1.3040       0.6181
   1414.18967       1.1465       0.6042    1414.18967       1.1466       0.6042
   1414.17441       1.2624       0.6687    1414.17441       1.2625       0.6687
   1414.15916       1.1981       0.5698    1414.15916       1.1982       0.5698
   1414.14390       1.2784       0.5225    1414.14390       1.2785       0.5225
   1414.12864       1.2248       0.5831    1414.12864       1.2249       0.5831
   1414.11338       1.2077       0.6056    1414.11338       1.2078       0.6056
   1414.09812       1.1952       0.5510    1414.09812       1.1953       0.5510
   1414.08286       1.2339       0.5323    1414.08286       1.2339       0.5323
   1414.06760       1.2012       0.4926    1414.06760       1.2013       0.4926
   1414.05234       1.2844       0.6688    1414.05234       1.2845       0.6688
   1414.03708       1.2282       0.5752    1414.03708       1.2283       0.5752
   1414.02183       1.2036       0.5965    1414.02183       1.2036       0.5965
   1414.00657       1.1811       0.5792    1414.00657       1.1812       0.5792
   1413.99131       1.2058       0.5793    1413.99131       1.2058       0.5793
   1413.97605       1.2236       0.6185    1413.97605       1.2236       0.6185
   1413.96079       1.2292       0.6086    1413.96079       1.2293       0.6086
   1413.94553       1.1854       0.5634    1413.94553       1.1854       0.5634
   1413.93027       1.1438       0.5802    1413.93027       1.1439       0.5802
   1413.91501       1.2461       0.5695    1413.91501       1.2462       0.5695
   1413.89976       1.2470       0.6622    1413.89976       1.2470       0.6622
   1413.88450       1.2069       0.6064    1413.88450       1.2070       0.6064
   1413.86924       1.2118       0.6481    1413.86924       1.2119       0.6481
   1413.85398       1.1707       0.6248    1413.85398       1.1708       0.6248
   1413.83872       1.1996       0.5817    1413.83872       1.1997       0.5817
   1413.82346       1.1700       0.6014    1413.82346       1.1701       0.6014
   1413.80820       1.1920       0.5893    1413.80820       1.1921       0.5893
   1413.79294       1.1586       0.6453    1413.79294       1.1587       0.6453
   1413.77769       1.2119       0.5984    1413.77769       1.2120       0.5984
   1413.76243       1.1833       0.6114    1413.76243       1.1834       0.6114
   1413.74717       1.1649       0.6924    1413.74717       1.1650       0.6924
   1413.73191       1.1776       0.7385    1413.73191       1.1777       0.7385
   1413.71665       1.1046       0.5580    1413.71665       1.1047       0.5580
   1413.70139       1.1611       0.5781    1413.70139       1.1612       0.5781
   1413.68613       1.1807       0.6251    1413.68613       1.1808       0.6251
   1413.67087       1.2010       0.7051    1413.67087       1.2011       0.7051
   1413.65562       1.1801       0.5778    1413.65562       1.1802       0.5778
   1413.64036       1.2202       0.6903    1413.64036       1.2202       0.6903
   1413.62510       1.2095       0.7119    1413.62510       1.2096       0.7119
   1413.60984       1.2054       0.5963    1413.60984       1.2055       0.5963
   1413.59458       1.1397       0.6625    1413.59458       1.1398       0.6625
   1413.57932       1.1472       0.6482    1413.57932       1.1472       0.6482
   1413.56406       1.2013       0.6371    1413.56406       1.2014       0.6371
   1413.54880       1.1721       0.6772    1413.54880       1.1721       0.6772
   1413.53354       1.2089       0.6162    1413.53354       1.2090       0.6162
   1413.51829       1.2106       0.7411    1413.51829       1.2107       0.7411
   1413.50303       1.1686       0.5819    1413.50303       1.1687       0.5819
   1413.48777       1.1745       0.6334    1413.48777       1.1746       0.6334
   1413.47251       1.1516       0.7278    1413.47251       1.1516       0.7278
   1413.45725       1.1852       0.6362    1413.45725       1.1853       0.6362
   1413.44199       1.1883       0.6940    1413.44199       1.1884       0.6940
   1413.42673       1.1441       0.7361    1413.42673       1.1442       0.7361
   1413.41147       1.1597       0.6829    1413.41147       1.1598       0.6829
   1413.39622       1.1029       0.7502    1413.39622       1.1030       0.7502
