#     FILENAME=Skynet_59471_M31_group2_62068_10914.A.onoff.cal.txt
#     BASENAME=Skynet_59471_M31_group2_62068_10914
#      CONTROL=SKYNET
#     PROJCODE=Skynet_59471_M31_group2_62068
#     DATAROOT=/raid/scratch/cyborg/SkynetData
#      DATADIR=/raid/scratch/cyborg
#     DATADIR2=/raid/scratch/cyborg/SkynetData/Skynet_59471_M31_group2_62068/C
#     SCANNAME=2019_06_26_10
#     SRC_NAME=M31_group2
#     OBSERVER=sdss2_39397
#     DATE_OBS=2021-09-14T02:44:52.500
#        OBSID=62068
#      SCANNUM=10914
#          MJD=59471.1144965
#          UTC=09893
#     SCANTYPE=onoff
#     DATAMODE=HIRES
#     RECEIVER=Rx1_2
#      OBSFREQ=1420.0000
# Actual_FREQ1=1667.0000,
# Actual_FREQ2=1417.0000
#    LO1Tuning=6992.0000
#     RFFILTER=1300_1800
#        OBSBW=-15.6250
#     EFFBANDW=15.6250
#        NCHAN=1024
#    STARTCHAN=51
#     STOPCHAN=972
#         TINT=0.3000
#         TBIN=0.00104858
#       ACCLEN=2048 
#     DURATION=408.90
#     EXPOSURE=389.05
#        FOCUS=37.115
#       RA,DEC=00:42:52.76, 41:16:08.20
#      RA(deg)=12.68062
#     DEC(deg)=41.26873
#   WIDTH(deg)=3.0218x0.0089
#    AZIM(deg)=66.6122
#    ELEV(deg)=46.5528
#     COORDREF=RA_DEC_
#         HREF=10.6846
#         VREF=41.2687
#      RADESYS=FK5
#       OFFSYS=RADEC
#      EQUINOX=2000.00
#     IFATTENS=15.00, 13.00
#   BALANCELEV=1.200 
#   POWER_XLYR=[9.99, 8.31] 
#       VELDEF=RADI-OBS 
#     VELOCITY=0.000 
#         NPOL=2 
#      POLMODE=Linear 
#      POLTYPE=XXYY 
#      WARNING=None 
#     NOISECAL=HI 
#       PRECAL=2 
#      POSTCAL=2 
#     CRYOTEMP=16 
#      BOXTEMP=23 
#         TSYS=XX1:103.14, YY1:10622.51
#         TSYS=XX2:141.61, YY2:31996.87
#         TCAL=XX1:9.43, YY1:11.86
#         TCAL=XX2:9.17, YY2:10.07
# Calibrated spectra: Tsys*(ON-OFF)/OFF 
#                
#                
#Freq1(MHz)         XX1          YY1   Freq2(MHz)       XX2         YY2 
   1674.03430      -0.4299   -1437.3526    1424.03430       3.6440   -7222.7791
   1674.01904      -0.3643   -1443.4843    1424.01904       3.7108   -7194.8315
   1674.00378      -0.4845   -1432.1725    1424.00378       3.4384   -7164.1133
   1673.98853      -0.5500   -1425.2377    1423.98853       3.7939   -7172.9405
   1673.97327      -0.3886   -1424.4319    1423.97327       3.8805   -7151.7219
   1673.95801      -0.4449   -1426.9617    1423.95801       3.8965   -7161.1116
   1673.94275      -0.4319   -1419.4059    1423.94275       3.7482   -7107.8205
   1673.92749      -0.5407   -1420.3124    1423.92749       3.8069   -7153.4488
   1673.91223      -0.2942   -1425.1705    1423.91223       3.8852   -7127.4891
   1673.89697      -0.5284   -1412.3434    1423.89697       3.6128   -7166.7444
   1673.88171      -0.3416   -1395.8720    1423.88171       3.8203   -7132.5111
   1673.86646      -0.5034   -1403.7829    1423.86646       3.7472   -7171.3443
   1673.85120      -0.3814   -1414.2846    1423.85120       3.8322   -7210.6815
   1673.83594       6.8611   -1351.6281    1423.83594       3.9401   -7131.5899
   1673.82068      -1.2540   -1426.4040    1423.82068       3.8236   -7127.8049
   1673.80542      -1.1038   -1406.2691    1423.80542       3.6917   -7178.2024
   1673.79016      -0.9922   -1385.7346    1423.79016       3.7173   -7124.4632
   1673.77490      -0.4768   -1384.6109    1423.77490       3.7369   -7167.6167
   1673.75964      -0.4640   -1381.3519    1423.75964       3.8684   -7144.2894
   1673.74438      -0.3049   -1377.8110    1423.74438       3.8856   -7164.2633
   1673.72913      -0.5989   -1393.7829    1423.72913       3.5317   -7141.4766
   1673.71387      -0.5559   -1379.8452    1423.71387       3.9393   -7097.6765
   1673.69861      -0.5165   -1376.1946    1423.69861       3.7984   -7181.0442
   1673.68335      -0.4733   -1371.3419    1423.68335       3.8275   -7148.6897
   1673.66809      -0.5932   -1367.8049    1423.66809       3.7602   -7104.7638
   1673.65283      -0.7222   -1360.2812    1423.65283       3.7243   -7140.3207
   1673.63757      -0.3420   -1375.9260    1423.63757       3.8313   -7108.8177
   1673.62231      -0.5297   -1373.4780    1423.62231       3.9076   -7153.5060
   1673.60706      -0.4375   -1363.3392    1423.60706       3.8277   -7158.8675
   1673.59180      -0.4722   -1357.8811    1423.59180       3.6946   -7155.6163
   1673.57654      -0.5653   -1361.4857    1423.57654       3.5739   -7151.4577
   1673.56128      -0.4741   -1361.1170    1423.56128       3.9662   -7125.5231
   1673.54602      -0.5312   -1349.0456    1423.54602       3.7762   -7138.2269
   1673.53076      -0.6254   -1346.5462    1423.53076       3.8229   -7108.9627
   1673.51550      -0.5742   -1341.2998    1423.51550       3.7574   -7151.5219
   1673.50024      -0.5654   -1349.4472    1423.50024       4.0071   -7119.0320
   1673.48499      -0.4955   -1349.9438    1423.48499       3.6212   -7145.4194
   1673.46973      -0.5984   -1337.5728    1423.46973       3.7040   -7104.7450
   1673.45447      -0.4505   -1337.4215    1423.45447       3.5324   -7147.2629
   1673.43921      -0.5678   -1339.6447    1423.43921       3.7714   -7135.1329
   1673.42395      -0.6253   -1340.6556    1423.42395       3.8971   -7176.4674
   1673.40869      -0.4768   -1335.9593    1423.40869       3.7735   -7125.6791
   1673.39343      -0.6156   -1342.8526    1423.39343       3.6413   -7113.9904
   1673.37817      -0.5222   -1333.9064    1423.37817       3.7023   -7185.4072
   1673.36292      -0.4116   -1326.5774    1423.36292       3.8185   -7149.2620
   1673.34766       4.7426   -1301.9851    1423.34766       3.8462   -7136.8995
   1673.33240      -0.9883   -1357.9615    1423.33240       3.8502   -7142.0343
   1673.31714      -0.9772   -1329.2231    1423.31714       3.8860   -7093.3843
   1673.30188      -0.9085   -1335.0144    1423.30188       3.5550   -7146.7118
   1673.28662      -0.6548   -1329.5993    1423.28662       3.7619   -7178.6470
   1673.27136      -0.4499   -1329.3871    1423.27136       3.8332   -7148.6957
   1673.25610      -0.6173   -1312.9530    1423.25610       3.8413   -7156.9758
   1673.24084      -0.6779   -1323.7528    1423.24084       3.9099   -7164.4970
   1673.22559      -0.5146   -1324.3955    1423.22559       4.1120   -7202.8327
   1673.21033      -0.4915   -1318.7285    1423.21033       3.6816   -7156.5293
   1673.19507      -0.4931   -1321.0918    1423.19507       3.8477   -7182.4665
   1673.17981      -0.5438   -1306.9891    1423.17981       3.9804   -7153.3627
   1673.16455      -0.5908   -1312.3799    1423.16455       3.8374   -7181.4879
   1673.14929      -0.5553   -1310.9892    1423.14929       3.7929   -7129.1286
   1673.13403      -0.5454   -1312.0491    1423.13403       4.0569   -7155.2154
   1673.11877      -0.5440   -1296.1415    1423.11877       4.1093   -7134.1352
   1673.10352      -0.5833   -1318.4813    1423.10352       4.1062   -7144.3787
   1673.08826      -0.5721   -1321.1685    1423.08826       3.9973   -7158.6242
   1673.07300      -0.4038   -1308.9181    1423.07300       4.4790   -7109.2421
   1673.05774      -0.5141   -1299.2908    1423.05774       4.3089   -7114.1018
   1673.04248      -0.5083   -1303.2370    1423.04248       4.2557   -7080.3901
   1673.02722      -0.4515   -1300.0650    1423.02722       4.1580   -7110.1000
   1673.01196      -0.5099   -1294.6502    1423.01196       4.3338   -7123.7671
   1672.99670      -0.6668   -1288.1216    1422.99670       4.5314   -7140.7674
   1672.98145      -0.5399   -1306.0145    1422.98145       4.4177   -7103.7433
   1672.96619      -0.7020   -1298.3329    1422.96619       4.3028   -7069.5626
   1672.95093      -0.5416   -1302.2725    1422.95093       4.6237   -7103.8814
   1672.93567      -0.6480   -1293.9888    1422.93567       4.7434   -7061.6761
   1672.92041      -0.4484   -1290.8825    1422.92041       4.5740   -7080.3803
   1672.90515      -0.6305   -1294.2286    1422.90515       4.7684   -7080.8151
   1672.88989      -0.4221   -1291.0046    1422.88989       4.8196   -7114.3804
   1672.87463      -0.6212   -1288.3027    1422.87463       4.5600   -7129.8386
   1672.85938       3.0679   -1252.1159    1422.85938       4.6448   -7116.6635
   1672.84412      -0.8368   -1304.9693    1422.84412       4.5924   -7135.5540
   1672.82886      -0.9349   -1308.6348    1422.82886       4.3747   -7102.9921
   1672.81360      -0.8388   -1296.2228    1422.81360       4.5656   -7106.4628
   1672.79834      -0.5066   -1284.7838    1422.79834       4.4955   -7084.6365
   1672.78308      -0.3526   -1292.0049    1422.78308       4.5942   -7117.4179
   1672.76782      -0.6166   -1289.7041    1422.76782       4.5289   -7116.1178
   1672.75256      -0.4095   -1288.2568    1422.75256       4.4673   -7145.1235
   1672.73730      -0.5549   -1274.8467    1422.73730       4.5360   -7106.8575
   1672.72205      -0.6457   -1281.0804    1422.72205       4.5129   -7099.6290
   1672.70679      -0.6507   -1285.3618    1422.70679       4.5019   -7108.5130
   1672.69153      -0.4711   -1280.3695    1422.69153       4.8130   -7121.3746
   1672.67627      -0.4662   -1289.2343    1422.67627       4.8165   -7084.0615
   1672.66101      -0.4691   -1287.9902    1422.66101       4.7671   -7094.7236
   1672.64575      -0.5600   -1288.2914    1422.64575       5.0088   -7072.7203
   1672.63049      -0.4155   -1273.5842    1422.63049       5.1448   -7063.6450
   1672.61523      -0.4583   -1270.6428    1422.61523       5.2021   -7059.4809
   1672.59998      -0.5139   -1291.5610    1422.59998       4.9704   -7064.0847
   1672.58472      -0.4282   -1285.2453    1422.58472       4.7626   -7065.2053
   1672.56946      -0.3355   -1262.1856    1422.56946       5.3109   -7039.1385
   1672.55420      -0.5479   -1276.6094    1422.55420       5.2215   -7071.5733
   1672.53894      -0.3812   -1292.9727    1422.53894       5.2796   -7030.1011
   1672.52368      -0.3986   -1279.8466    1422.52368       5.5410   -6988.9222
   1672.50842      -0.5099   -1274.6411    1422.50842       5.5981   -7030.6547
   1672.49316      -0.4366   -1278.8065    1422.49316       5.8295   -6987.8564
   1672.47791      -0.5339   -1286.7324    1422.47791       5.8287   -6958.1107
   1672.46265      -0.3600   -1272.8407    1422.46265       5.9837   -6969.4323
   1672.44739      -0.4436   -1283.1280    1422.44739       5.9347   -6948.8612
   1672.43213      -0.4764   -1264.9265    1422.43213       6.1331   -6918.9692
   1672.41687      -0.5978   -1287.0403    1422.41687       6.2959   -6848.4810
   1672.40161      -0.5554   -1274.8162    1422.40161       6.5033   -6855.4992
   1672.38635      -0.5353   -1282.4639    1422.38635       6.8518   -6849.3599
   1672.37109       2.0745   -1242.8338    1422.37109       6.7173   -6768.9144
   1672.35583      -0.6074   -1276.5985    1422.35583       7.1654   -6810.2593
   1672.34058      -0.5088   -1277.3563    1422.34058       6.8964   -6770.4882
   1672.32532      -0.5301   -1269.2788    1422.32532       7.1643   -6771.9074
   1672.31006      -0.4997   -1276.5181    1422.31006       7.4094   -6729.7818
   1672.29480      -0.5697   -1276.6025    1422.29480       7.4233   -6700.1312
   1672.27954      -0.3576   -1271.2792    1422.27954       7.5248   -6687.4355
   1672.26428      -0.3765   -1270.4662    1422.26428       8.0292   -6649.2711
   1672.24902      -0.4631   -1274.3328    1422.24902       8.2015   -6581.8533
   1672.23376      -0.4944   -1271.4492    1422.23376       8.4390   -6571.3973
   1672.21851      -0.5255   -1268.6378    1422.21851       8.6513   -6547.7391
   1672.20325      -0.4593   -1279.3796    1422.20325       8.5400   -6539.1773
   1672.18799      -0.5811   -1280.1677    1422.18799       8.8291   -6474.1843
   1672.17273      -0.5046   -1277.5360    1422.17273       8.6896   -6499.9612
   1672.15747      -0.4846   -1263.6360    1422.15747       8.9739   -6444.4917
   1672.14221      -0.4920   -1270.4615    1422.14221       9.2695   -6438.5940
   1672.12695      -0.4011   -1269.8732    1422.12695       9.6589   -6373.7722
   1672.11169      -0.4510   -1268.9820    1422.11169       9.9241   -6297.1147
   1672.09644      -0.4228   -1264.4860    1422.09644      10.0569   -6262.2128
   1672.08118      -0.5605   -1270.5224    1422.08118      10.1606   -6233.5213
   1672.06592      -0.4040   -1280.1409    1422.06592      10.5390   -6212.0794
   1672.05066      -0.4801   -1268.8233    1422.05066      10.6116   -6177.4951
   1672.03540      -0.4758   -1267.5109    1422.03540      10.9348   -6094.7054
   1672.02014      -0.4364   -1279.2459    1422.02014      11.3613   -6071.6141
   1672.00488      -0.3715   -1261.2227    1422.00488      11.4344   -6043.5862
   1671.98962      -0.3929   -1273.7046    1421.98962      11.3850   -6010.9482
   1671.97437      -0.6196   -1267.7128    1421.97437      11.3314   -6008.9281
   1671.95911      -0.4406   -1268.6161    1421.95911      11.3217   -6074.5372
   1671.94385      -0.4543   -1286.3677    1421.94385      11.5188   -6084.5813
   1671.92859      -0.4332   -1275.1249    1421.92859      11.2494   -6061.4320
   1671.91333      -0.4261   -1280.2444    1421.91333      11.4375   -6041.3511
   1671.89807      -0.4456   -1264.3989    1421.89807      11.1117   -6058.8517
   1671.88281       2.3356   -1255.2714    1421.88281      11.2495   -6117.0960
   1671.86755      -0.5003   -1275.3143    1421.86755      11.3047   -6134.0802
   1671.85229      -0.4235   -1269.1273    1421.85229      11.0166   -6136.0700
   1671.83704      -0.4267   -1267.3527    1421.83704      11.1545   -6157.1876
   1671.82178      -0.3897   -1275.3193    1421.82178      11.1455   -6178.4316
   1671.80652      -0.3805   -1281.1911    1421.80652      11.2602   -6136.6531
   1671.79126      -0.4866   -1266.4267    1421.79126      11.4661   -6120.7378
   1671.77600      -0.5421   -1269.1447    1421.77600      11.2855   -6101.0363
   1671.76074      -0.5116   -1277.4050    1421.76074      11.3777   -6105.0087
   1671.74548      -0.4452   -1281.2769    1421.74548      11.0929   -6151.5730
   1671.73022      -0.4950   -1279.1368    1421.73022      10.5971   -6237.6831
   1671.71497      -0.5504   -1282.4189    1421.71497      10.5682   -6257.3001
   1671.69971      -0.4368   -1281.3587    1421.69971      10.3520   -6316.4288
   1671.68445      -0.3928   -1289.2432    1421.68445      10.0581   -6339.5988
   1671.66919      -0.5018   -1284.1634    1421.66919       9.8982   -6387.1184
   1671.65393      -0.4977   -1282.8097    1421.65393       9.4829   -6469.4263
   1671.63867      -0.4112   -1278.3310    1421.63867       9.0384   -6583.7929
   1671.62341      -0.4281   -1271.3252    1421.62341       8.9169   -6619.8536
   1671.60815      -0.4204   -1290.0525    1421.60815       8.6212   -6671.9418
   1671.59290      -0.4610   -1290.9873    1421.59290       8.3349   -6664.9633
   1671.57764      -0.5685   -1279.7507    1421.57764       8.3155   -6733.3278
   1671.56238      -0.4438   -1284.9450    1421.56238       7.9765   -6800.3388
   1671.54712      -0.4325   -1284.3514    1421.54712       7.5589   -6835.7786
   1671.53186      -0.4929   -1282.0888    1421.53186       7.4506   -6909.7492
   1671.51660      -0.4578   -1280.3774    1421.51660       6.8766   -6944.9400
   1671.50134      -0.4785   -1282.8221    1421.50134       7.1334   -6996.8702
   1671.48608      -0.3642   -1280.4378    1421.48608       6.8500   -7001.2648
   1671.47083      -0.4939   -1274.6770    1421.47083       6.8498   -7021.4317
   1671.45557      -0.3329   -1277.2338    1421.45557       6.6175   -7056.4551
   1671.44031      -0.4260   -1282.5963    1421.44031       6.4550   -7097.0319
   1671.42505      -0.5789   -1287.8619    1421.42505       6.2729   -7138.0154
   1671.40979      -0.5190   -1287.4411    1421.40979       6.0387   -7149.4143
   1671.39453       2.1589   -1263.0974    1421.39453       5.8237   -7199.7440
   1671.37927      -0.3564   -1277.6203    1421.37927       5.6964   -7231.3816
   1671.36401      -0.4830   -1291.6152    1421.36401       5.4209   -7264.8561
   1671.34875      -0.3877   -1295.1924    1421.34875       5.2707   -7300.0089
   1671.33350      -0.5065   -1287.7914    1421.33350       5.2112   -7318.8910
   1671.31824      -0.5515   -1296.4460    1421.31824       5.2078   -7321.0472
   1671.30298      -0.3852   -1278.4362    1421.30298       4.8754   -7365.0562
   1671.28772      -0.5427   -1293.2339    1421.28772       4.7354   -7370.6991
   1671.27246      -0.5021   -1302.4030    1421.27246       4.5976   -7425.2965
   1671.25720      -0.3493   -1285.9900    1421.25720       4.5671   -7439.2305
   1671.24194      -0.4941   -1295.1083    1421.24194       4.4921   -7449.9512
   1671.22668      -0.3709   -1285.8117    1421.22668       4.3881   -7466.9451
   1671.21143      -0.3488   -1292.0783    1421.21143       4.3858   -7446.6652
   1671.19617      -0.4809   -1296.7472    1421.19617       4.4541   -7479.4593
   1671.18091      -0.4695   -1293.3953    1421.18091       4.1075   -7522.5419
   1671.16565      -0.4123   -1290.9589    1421.16565       4.2026   -7499.5637
   1671.15039      -0.4812   -1302.1158    1421.15039       4.2298   -7515.9421
   1671.13513      -0.4791   -1301.7216    1421.13513       4.0716   -7524.9510
   1671.11987      -0.4142   -1304.7784    1421.11987       3.8592   -7516.1031
   1671.10461      -0.4590   -1299.6958    1421.10461       3.9780   -7550.0419
   1671.08936      -0.4909   -1299.2413    1421.08936       3.9528   -7575.3124
   1671.07410      -0.5394   -1302.8605    1421.07410       4.0643   -7563.4967
   1671.05884      -0.4234   -1283.1358    1421.05884       3.8884   -7539.0194
   1671.04358      -0.3934   -1293.7958    1421.04358       3.9079   -7555.0548
   1671.02832      -0.4473   -1303.1887    1421.02832       3.9934   -7597.9955
   1671.01306      -0.5677   -1293.7873    1421.01306       3.9314   -7596.8841
   1670.99780      -0.4036   -1296.5974    1420.99780       3.9586   -7562.8619
   1670.98254      -0.4745   -1290.5010    1420.98254       3.9961   -7561.8671
   1670.96729      -0.6461   -1314.0817    1420.96729       3.9919   -7544.1103
   1670.95203      -0.5716   -1303.6487    1420.95203       3.8272   -7550.7578
   1670.93677      -0.6426   -1312.3982    1420.93677       3.9206   -7572.3829
   1670.92151      -0.5592   -1308.4968    1420.92151       3.7446   -7543.9368
   1670.90625       1.9624   -1287.9046    1420.90625       3.8885   -7589.5376
   1670.89099      -0.4693   -1317.2725    1420.89099       3.5297   -7595.3672
   1670.87573      -0.4470   -1317.3358    1420.87573       3.5155   -7639.3568
   1670.86047      -0.4604   -1304.7075    1420.86047       3.2783   -7661.4402
   1670.84521      -0.4452   -1308.5542    1420.84521       3.4439   -7673.1097
   1670.82996      -0.4488   -1314.6942    1420.82996       2.8880   -7740.6300
   1670.81470      -0.5130   -1315.2882    1420.81470       2.4696   -7844.2477
   1670.79944      -0.4434   -1317.6750    1420.79944       1.2069   -7998.5148
   1670.78418      -0.5326   -1322.3743    1420.78418       0.7840   -8145.1639
   1670.76892      -0.4727   -1311.2156    1420.76892       1.2197   -8053.8494
   1670.75366      -0.3669   -1309.1814    1420.75366       2.1019   -7889.0925
   1670.73840      -0.5597   -1322.6615    1420.73840       3.1870   -7737.0398
   1670.72314      -0.3278   -1314.1588    1420.72314       4.0149   -7578.0927
   1670.70789      -0.4329   -1321.7084    1420.70789       5.3698   -7324.8756
   1670.69263      -0.4093   -1327.1586    1420.69263       7.5342   -6894.5587
   1670.67737      -0.4496   -1318.2908    1420.67737       8.7279   -6687.8793
   1670.66211      -0.4966   -1322.1748    1420.66211       7.3489   -6943.1116
   1670.64685      -0.4410   -1327.1732    1420.64685       6.7215   -7076.9916
   1670.63159      -0.5040   -1329.1781    1420.63159       5.8275   -7196.4485
   1670.61633      -0.4317   -1341.4296    1420.61633       6.1419   -7190.2728
   1670.60107      -0.4753   -1326.0202    1420.60107       5.1342   -7395.3007
   1670.58582      -0.3730   -1336.4413    1420.58582       3.1576   -7701.0289
   1670.57056      -0.5162   -1339.3292    1420.57056       2.7095   -7809.0525
   1670.55530      -0.4534   -1341.9600    1420.55530       2.8291   -7750.4550
   1670.54004      -0.6278   -1342.9605    1420.54004       3.5718   -7689.5708
   1670.52478      -0.6104   -1344.3666    1420.52478       2.8603   -7782.6283
   1670.50952      -0.3209   -1349.9514    1420.50952       9.5882   -6504.4945
   1670.49426      -0.3367   -1335.7574    1420.49426      18.0931   -4975.5081
   1670.47900      -0.4409   -1339.0468    1420.47900      12.0218   -6091.7853
   1670.46375      -0.4366   -1335.0041    1420.46375      -1.3693   -8542.1279
   1670.44849      -0.5511   -1332.3791    1420.44849       2.2096   -7888.0030
   1670.43323      -0.5719   -1347.7998    1420.43323       2.8364   -7712.9653
   1670.41797       1.7126   -1320.2971    1420.41797       2.5119   -7757.4265
   1670.40271      -0.5081   -1349.5224    1420.40271       2.4009   -7818.5840
   1670.38745      -0.3363   -1352.1388    1420.38745       2.1273   -7824.5952
   1670.37219      -0.4905   -1347.4905    1420.37219       2.0536   -7789.9500
   1670.35693      -0.5089   -1350.0025    1420.35693       2.5130   -7767.5664
   1670.34167      -0.4470   -1355.5926    1420.34167       2.6593   -7728.2010
   1670.32642      -0.4798   -1360.5729    1420.32642       2.6853   -7762.0850
   1670.31116      -0.3729   -1345.0752    1420.31116       2.5578   -7758.0415
   1670.29590      -0.4633   -1341.7234    1420.29590       2.5641   -7755.3789
   1670.28064      -0.4072   -1355.0889    1420.28064       2.4412   -7768.0852
   1670.26538      -0.4203   -1345.7114    1420.26538       2.5161   -7755.3091
   1670.25012      -0.3393   -1354.0823    1420.25012       2.2316   -7757.0683
   1670.23486      -0.4226   -1361.3707    1420.23486       2.4120   -7788.9112
   1670.21960      -0.3350   -1367.0227    1420.21960       2.3617   -7757.0910
   1670.20435      -0.4907   -1373.2855    1420.20435       2.3843   -7753.6111
   1670.18909      -0.5070   -1364.2154    1420.18909       2.1787   -7760.4572
   1670.17383      -0.5135   -1373.4666    1420.17383       2.3264   -7748.9981
   1670.15857      -0.4387   -1368.3420    1420.15857       2.3147   -7757.7070
   1670.14331      -0.4048   -1369.6337    1420.14331       2.3430   -7746.5948
   1670.12805      -0.4232   -1381.6682    1420.12805       2.3379   -7759.5811
   1670.11279      -0.3972   -1375.4073    1420.11279       2.1701   -7733.1702
   1670.09753      -0.5044   -1373.7622    1420.09753       2.2049   -7742.2980
   1670.08228      -0.4427   -1379.3613    1420.08228       2.3997   -7724.6616
   1670.06702      -0.3986   -1369.9897    1420.06702       2.4128   -7733.6938
   1670.05176      -0.4030   -1373.7493    1420.05176       2.2319   -7752.4878
   1670.03650      -0.4993   -1370.0785    1420.03650       2.2348   -7747.7725
   1670.02124      -0.5172   -1379.6697    1420.02124       2.0208   -7751.4040
   1670.00598      -0.4271   -1373.5069    1420.00598       2.2816   -7718.8775
   1669.99072      -0.4751   -1386.0818    1419.99072       2.3590   -7727.0946
   1669.97546      -0.5446   -1382.2438    1419.97546       2.2681   -7732.4380
   1669.96021      -0.4005   -1390.2905    1419.96021       2.1584   -7723.6060
   1669.94495      -0.4766   -1387.4894    1419.94495       2.3134   -7733.1704
   1669.92969       1.7164   -1386.5897    1419.92969       2.3275   -7748.1271
   1669.91443      -0.3845   -1397.5051    1419.91443       2.1647   -7727.4341
   1669.89917      -0.5177   -1389.4074    1419.89917       2.2749   -7701.8211
   1669.88391      -0.4478   -1404.5953    1419.88391       2.1893   -7745.7393
   1669.86865      -0.5239   -1400.4190    1419.86865       2.4680   -7702.6902
   1669.85339      -0.5139   -1397.6776    1419.85339       2.1666   -7730.2563
   1669.83813      -0.3384   -1392.3650    1419.83813       2.1771   -7732.8062
   1669.82288      -0.4453   -1406.6332    1419.82288       2.2342   -7709.8841
   1669.80762      -0.5354   -1402.9682    1419.80762       2.3175   -7697.0650
   1669.79236      -0.4622   -1397.2613    1419.79236       2.2516   -7693.8044
   1669.77710      -0.4726   -1407.4807    1419.77710       2.1109   -7677.2744
   1669.76184      -0.2751   -1402.8843    1419.76184       2.3161   -7698.7109
   1669.74658      -0.4005   -1407.0035    1419.74658       2.2248   -7664.9739
   1669.73132      -0.3639   -1408.5515    1419.73132       2.2999   -7667.7028
   1669.71606      -0.3139   -1405.7576    1419.71606       2.1961   -7669.4348
   1669.70081      -0.4074   -1411.2683    1419.70081       2.2513   -7649.7251
   1669.68555      -0.5114   -1404.9272    1419.68555       2.0902   -7664.9675
   1669.67029      -0.4763   -1405.6643    1419.67029       2.1156   -7644.2989
   1669.65503      -0.5437   -1415.0738    1419.65503       2.0382   -7673.9804
   1669.63977      -0.4340   -1414.0489    1419.63977       2.1552   -7641.0813
   1669.62451      -0.3121   -1413.3814    1419.62451       2.0531   -7630.9529
   1669.60925      -0.3928   -1409.8692    1419.60925       2.2879   -7652.6512
   1669.59399      -0.3740   -1410.5025    1419.59399       2.1506   -7642.2559
   1669.57874      -0.3880   -1413.4589    1419.57874       2.0521   -7618.9263
   1669.56348      -0.4218   -1426.6976    1419.56348       2.2677   -7619.6051
   1669.54822      -0.4309   -1415.6273    1419.54822       2.0708   -7630.1336
   1669.53296      -0.3355   -1431.2622    1419.53296       1.9520   -7622.5009
   1669.51770      -0.3961   -1417.9088    1419.51770       2.0578   -7606.7165
   1669.50244      -0.5483   -1425.7953    1419.50244       1.9394   -7600.3755
   1669.48718      -0.3987   -1449.3871    1419.48718       2.2993   -7606.3124
   1669.47192      -0.4134   -1422.1156    1419.47192       2.0872   -7580.4751
   1669.45667      -0.5519   -1430.9858    1419.45667       2.1093   -7583.4720
   1669.44141       1.5589   -1435.7989    1419.44141       2.1339   -7567.8138
   1669.42615      -0.4235   -1429.5348    1419.42615       2.0798   -7556.4928
   1669.41089      -0.4069   -1432.0978    1419.41089       1.9596   -7590.4467
   1669.39563      -0.4851   -1443.6640    1419.39563       2.0437   -7569.8047
   1669.38037      -0.3692   -1447.8099    1419.38037       1.9971   -7520.2640
   1669.36511      -0.4154   -1442.4931    1419.36511       2.0151   -7560.1913
   1669.34985      -0.4364   -1460.7684    1419.34985       1.9334   -7562.0998
   1669.33459      -0.4731   -1445.2003    1419.33459       1.8734   -7567.0299
   1669.31934      -0.4953   -1436.0897    1419.31934       2.0321   -7543.8250
   1669.30408      -0.4830   -1457.7010    1419.30408       2.0036   -7515.0295
   1669.28882      -0.4811   -1452.6849    1419.28882       1.9131   -7519.1805
   1669.27356      -0.5164   -1460.0865    1419.27356       1.9744   -7512.9821
   1669.25830      -0.4291   -1459.8869    1419.25830       1.9796   -7544.0394
   1669.24304      -0.4715   -1455.3404    1419.24304       1.7030   -7541.4487
   1669.22778      -0.4596   -1443.2957    1419.22778       1.9196   -7514.4647
   1669.21252      -0.5233   -1454.9685    1419.21252       1.9692   -7509.4477
   1669.19727      -0.4455   -1463.9854    1419.19727       2.0087   -7517.2267
   1669.18201      -0.4394   -1469.8431    1419.18201       2.2142   -7512.4527
   1669.16675      -0.4452   -1469.4979    1419.16675       2.0978   -7491.6677
   1669.15149      -0.4482   -1470.7999    1419.15149       1.9803   -7506.7586
   1669.13623      -0.5318   -1470.4082    1419.13623       1.9569   -7499.0343
   1669.12097      -0.4770   -1467.6869    1419.12097       1.8847   -7497.6959
   1669.10571      -0.4296   -1472.3278    1419.10571       1.9950   -7493.2836
   1669.09045      -0.4907   -1481.0478    1419.09045       1.8984   -7484.7716
   1669.07520      -0.4506   -1482.8588    1419.07520       2.0071   -7467.7682
   1669.05994      -0.4803   -1494.3466    1419.05994       1.8399   -7459.0028
   1669.04468      -0.3780   -1479.4102    1419.04468       2.0189   -7447.6117
   1669.02942      -0.3653   -1492.9713    1419.02942       1.8979   -7441.5698
   1669.01416      -0.3357   -1490.0949    1419.01416       1.9586   -7456.8317
   1668.99890      -0.3452   -1494.3063    1418.99890       1.9160   -7446.9902
   1668.98364      -0.4799   -1508.3789    1418.98364       1.8570   -7427.9566
   1668.96838      -0.4603   -1498.3299    1418.96838       1.6591   -7447.6207
   1668.95312       1.2224   -1495.2401    1418.95312       1.8573   -7437.4961
   1668.93787      -0.5135   -1492.5027    1418.93787       1.8957   -7424.7556
   1668.92261      -0.4819   -1511.4372    1418.92261       1.7915   -7425.5897
   1668.90735      -0.4622   -1507.3684    1418.90735       1.7335   -7408.1763
   1668.89209      -0.4692   -1491.7839    1418.89209       1.7785   -7404.2970
   1668.87683      -0.4803   -1513.6871    1418.87683       1.6711   -7374.7740
   1668.86157      -0.5251   -1512.4988    1418.86157       1.6500   -7366.8831
   1668.84631      -0.4107   -1512.3774    1418.84631       1.7734   -7360.8236
   1668.83105      -0.4911   -1512.0038    1418.83105       1.7127   -7384.5457
   1668.81580      -0.4325   -1518.4934    1418.81580       1.7126   -7388.2912
   1668.80054      -0.5300   -1513.7368    1418.80054       1.5051   -7346.8666
   1668.78528      -0.6088   -1528.8096    1418.78528       1.6545   -7373.3935
   1668.77002      -0.4879   -1511.3550    1418.77002       1.6067   -7360.6527
   1668.75476      -0.5370   -1521.0311    1418.75476       1.6932   -7400.9029
   1668.73950      -0.5968   -1525.9950    1418.73950       1.6427   -7340.7546
   1668.72424      -0.4418   -1532.7444    1418.72424       1.6951   -7340.3301
   1668.70898      -0.5345   -1524.4199    1418.70898       1.6281   -7323.6106
   1668.69373      -0.4435   -1529.3855    1418.69373       1.5841   -7313.2416
   1668.67847      -0.4717   -1529.7761    1418.67847       1.5537   -7329.4156
   1668.66321      -0.5034   -1531.7325    1418.66321       1.5531   -7299.2707
   1668.64795      -0.4638   -1538.0360    1418.64795       1.5983   -7306.1500
   1668.63269      -0.5212   -1553.8449    1418.63269       1.6652   -7288.7953
   1668.61743      -0.5099   -1544.4616    1418.61743       1.3754   -7302.4931
   1668.60217      -0.6405   -1554.7463    1418.60217       1.4953   -7321.7556
   1668.58691      -0.5414   -1547.9380    1418.58691       1.4335   -7307.9603
   1668.57166      -0.5081   -1555.2424    1418.57166       1.4757   -7298.8797
   1668.55640      -0.5970   -1558.2718    1418.55640       1.4388   -7273.3354
   1668.54114      -0.5396   -1557.5590    1418.54114       1.2968   -7307.0336
   1668.52588      -0.5227   -1560.9757    1418.52588       1.4732   -7276.3899
   1668.51062      -0.4301   -1552.8801    1418.51062       1.5150   -7242.4692
   1668.49536      -0.6253   -1570.1930    1418.49536       1.3620   -7251.0627
   1668.48010      -0.5699   -1562.3104    1418.48010       1.3923   -7252.3526
   1668.46484       0.7211   -1561.2779    1418.46484       1.3953   -7233.6450
   1668.44958      -0.5611   -1567.7214    1418.44958       1.4363   -7252.2415
   1668.43433      -0.5190   -1570.2958    1418.43433       1.2195   -7250.8943
   1668.41907      -0.3817   -1554.0761    1418.41907       1.4258   -7226.6177
   1668.40381      -0.5300   -1575.9316    1418.40381       1.3897   -7209.5126
   1668.38855      -0.5828   -1560.7834    1418.38855       1.2218   -7210.5023
   1668.37329      -0.5854   -1584.9390    1418.37329       1.3716   -7219.1690
   1668.35803      -0.5664   -1568.8838    1418.35803       1.3161   -7186.3416
   1668.34277      -0.5441   -1579.5333    1418.34277       1.5422   -7191.5825
   1668.32751      -0.4917   -1582.4847    1418.32751       1.2984   -7197.9562
   1668.31226      -0.5364   -1569.0591    1418.31226       1.3822   -7184.6758
   1668.29700      -0.4659   -1575.0440    1418.29700       1.2686   -7161.9821
   1668.28174      -0.5940   -1585.5911    1418.28174       1.1973   -7178.3747
   1668.26648      -0.5783   -1587.3851    1418.26648       1.1379   -7206.6568
   1668.25122      -0.5158   -1599.1320    1418.25122       1.0338   -7189.7404
   1668.23596      -0.5693   -1575.4125    1418.23596       1.4581   -7161.7249
   1668.22070      -0.4103   -1603.5589    1418.22070       1.2463   -7186.5125
   1668.20544      -0.5074   -1594.8149    1418.20544       1.2619   -7181.4106
   1668.19019      -0.6386   -1602.8467    1418.19019       1.1540   -7163.3825
   1668.17493      -0.5529   -1599.2677    1418.17493       1.2776   -7140.4920
   1668.15967      -0.6216   -1605.8466    1418.15967       1.1973   -7164.9939
   1668.14441      -0.6303   -1602.2188    1418.14441       1.3438   -7128.1895
   1668.12915      -0.6441   -1609.6821    1418.12915       1.1569   -7104.2041
   1668.11389      -0.7237   -1618.3587    1418.11389       1.1381   -7130.1717
   1668.09863      -0.5688   -1617.0037    1418.09863       1.0367   -7113.7483
   1668.08337      -0.5825   -1610.7034    1418.08337       1.2453   -7090.8074
   1668.06812      -0.6330   -1611.8482    1418.06812       1.2071   -7116.5128
   1668.05286      -0.6227   -1619.1969    1418.05286       1.2179   -7098.3495
   1668.03760      -0.5469   -1622.4203    1418.03760       1.0251   -7084.6092
   1668.02234      -0.5904   -1628.8236    1418.02234       1.1273   -7071.7745
   1668.00708      -0.7165   -1629.2232    1418.00708       1.0995   -7085.8403
   1667.99182      -0.6086   -1628.9723    1417.99182       0.9714   -7068.6813
   1667.97656       0.2669   -1621.5846    1417.97656       1.0569   -7081.8579
   1667.96130      -0.6224   -1631.3003    1417.96130       1.0752   -7093.3784
   1667.94604      -0.6686   -1649.9234    1417.94604       1.0949   -7082.0863
   1667.93079      -0.6763   -1635.4159    1417.93079       0.9837   -7067.7942
   1667.91553      -0.7344   -1640.2150    1417.91553       1.0159   -7055.8830
   1667.90027      -0.6114   -1647.3231    1417.90027       1.1197   -7071.8914
   1667.88501      -0.5851   -1646.3712    1417.88501       0.9913   -7037.5032
   1667.86975      -0.5846   -1647.8344    1417.86975       1.0814   -7063.3488
   1667.85449      -0.7030   -1657.0437    1417.85449       0.9161   -7064.7751
   1667.83923      -0.7038   -1647.2609    1417.83923       0.8697   -7051.0206
   1667.82397      -0.5825   -1639.2485    1417.82397       0.8762   -7018.7592
   1667.80872      -0.6556   -1662.8863    1417.80872       0.9226   -7048.3813
   1667.79346      -0.5407   -1661.2951    1417.79346       0.9656   -7077.9763
   1667.77820      -0.6733   -1651.3968    1417.77820       0.8735   -7052.8632
   1667.76294      -0.6537   -1649.3587    1417.76294       1.0158   -7011.5995
   1667.74768      -0.5729   -1663.0455    1417.74768       0.9292   -7047.3623
   1667.73242      -0.5978   -1662.9661    1417.73242       0.7823   -7039.7482
   1667.71716      -0.6205   -1660.4866    1417.71716       0.9165   -7034.7235
   1667.70190      -0.6807   -1675.3894    1417.70190       0.7865   -7013.8469
   1667.68665      -0.5089   -1654.5856    1417.68665       0.9402   -7064.6487
   1667.67139      -0.5826   -1672.2042    1417.67139       0.8149   -7027.6365
   1667.65613      -0.6177   -1663.6953    1417.65613       0.7653   -7055.6123
   1667.64087      -0.6756   -1673.9018    1417.64087       0.9121   -7027.4890
   1667.62561      -0.6863   -1675.3364    1417.62561       0.7283   -7017.8769
   1667.61035      -0.5392   -1685.4703    1417.61035       0.8995   -7002.0255
   1667.59509      -0.6443   -1688.3604    1417.59509       0.8666   -7019.4511
   1667.57983      -0.6654   -1678.1342    1417.57983       0.7307   -7041.4020
   1667.56458      -0.3740   -1680.9572    1417.56458       0.7802   -7018.1105
   1667.54932      -0.5765   -1680.9268    1417.54932       0.8356   -7004.5595
   1667.53406      -0.5259   -1675.7174    1417.53406       0.7848   -7006.8047
   1667.51880      -0.5012   -1681.2015    1417.51880       0.8408   -6989.7299
   1667.50354      -0.5150   -1680.4553    1417.50354       0.8493   -7023.7806
   1667.48828       0.0809   -1696.1921    1417.48828       0.7380   -7025.9254
   1667.47302      -0.4231   -1686.5109    1417.47302       0.8120   -7002.2856
   1667.45776      -0.4889   -1693.5130    1417.45776       0.5738   -7002.3661
   1667.44250      -0.5246   -1704.1536    1417.44250       0.5166   -6992.3173
   1667.42725      -0.4256   -1700.0298    1417.42725       0.6567   -7004.2947
   1667.41199      -0.4271   -1710.8657    1417.41199       0.6746   -6987.8582
   1667.39673      -0.3727   -1703.0255    1417.39673       0.6422   -6956.3384
   1667.38147      -0.4793   -1703.4240    1417.38147       0.6301   -6966.5899
   1667.36621      -0.4858   -1710.7517    1417.36621       0.6068   -6986.2553
   1667.35095      -0.3568   -1697.0883    1417.35095       0.5180   -7002.0873
   1667.33569      -0.4721   -1713.2199    1417.33569       0.4832   -6985.5814
   1667.32043      -0.4447   -1711.9486    1417.32043       0.4943   -6962.5097
   1667.30518      -0.4276   -1711.5111    1417.30518       0.5837   -6975.9912
   1667.28992      -0.3738   -1714.3086    1417.28992       0.6186   -7002.8224
   1667.27466      -0.2306   -1715.4040    1417.27466       0.5562   -6961.6549
   1667.25940      -0.3634   -1716.2395    1417.25940       0.6031   -6966.0323
   1667.24414      -0.2440   -1713.3945    1417.24414       0.5822   -6962.0341
   1667.22888      -0.2646   -1716.1636    1417.22888       0.6902   -6951.4239
   1667.21362      -0.1970   -1723.3647    1417.21362       0.4006   -6970.0579
   1667.19836      -0.2701   -1724.8372    1417.19836       0.3817   -6939.5676
   1667.18311      -0.2544   -1727.8687    1417.18311       0.3561   -6975.7374
   1667.16785      -0.2086   -1720.7904    1417.16785       0.2075   -6953.1823
   1667.15259      -0.1223   -1732.2003    1417.15259       0.4075   -6942.4017
   1667.13733      -0.2375   -1735.8189    1417.13733       0.4022   -6946.3896
   1667.12207      -0.1363   -1740.6094    1417.12207       0.4972   -6942.0197
   1667.10681      -0.2764   -1743.1616    1417.10681       0.2594   -6969.4483
   1667.09155      -0.0771   -1739.9481    1417.09155       0.5439   -6973.4187
   1667.07629      -0.0985   -1748.0489    1417.07629       0.3207   -6942.3374
   1667.06104      -0.0633   -1746.6669    1417.06104       0.3912   -6930.7447
   1667.04578      -0.0991   -1751.0468    1417.04578       0.3480   -6943.4361
   1667.03052      -0.1318   -1753.6497    1417.03052       0.3584   -6936.8464
   1667.01526       0.1475   -1749.9805    1417.01526       0.3609   -6946.9807
   1667.00000       0.0164   -1747.2387    1417.00000       0.6041   -6932.8340
   1666.98474       0.0211   -1746.6959    1416.98474       0.9086   -6918.6847
   1666.96948       0.0665   -1754.8012    1416.96948       0.2896   -6967.7108
   1666.95422       0.1996   -1764.1593    1416.95422       0.3186   -6941.6154
   1666.93896       0.1737   -1752.3232    1416.93896       0.1879   -6942.0677
   1666.92371       0.1154   -1753.9005    1416.92371       0.1777   -6940.4314
   1666.90845       0.0496   -1769.1287    1416.90845       0.2858   -6940.4894
   1666.89319       0.0456   -1758.9790    1416.89319       0.1609   -6941.8924
   1666.87793       0.0804   -1766.2996    1416.87793       0.2034   -6912.6112
   1666.86267       0.0555   -1759.9017    1416.86267       0.3187   -6941.9536
   1666.84741       0.2172   -1771.2230    1416.84741       0.3157   -6960.8640
   1666.83215       0.1301   -1774.4353    1416.83215       0.1251   -6957.8164
   1666.81689       0.0844   -1769.8365    1416.81689       0.1587   -6931.8309
   1666.80164       0.0399   -1769.9684    1416.80164       0.0866   -6950.7665
   1666.78638       0.2617   -1768.5150    1416.78638       0.3450   -6951.5667
   1666.77112       0.3166   -1785.8463    1416.77112       0.3488   -6939.9309
   1666.75586       0.2519   -1766.4572    1416.75586       0.1964   -6971.5774
   1666.74060       0.1804   -1789.5197    1416.74060       0.1721   -6954.1609
   1666.72534       0.5109   -1784.8645    1416.72534       0.2553   -6937.2600
   1666.71008       0.2954   -1778.7983    1416.71008       0.1348   -6940.2614
   1666.69482       0.4969   -1786.1593    1416.69482       0.1744   -6941.9590
   1666.67957       0.4596   -1780.8027    1416.67957       0.1460   -6965.0699
   1666.66431       0.2133   -1782.2084    1416.66431       0.2025   -6946.9460
   1666.64905       0.2889   -1786.4881    1416.64905       0.0974   -6956.0960
   1666.63379       0.4419   -1790.8805    1416.63379       0.0880   -6957.2702
   1666.61853       0.3738   -1799.7696    1416.61853       0.0038   -6964.6831
   1666.60327       0.4354   -1797.0464    1416.60327       0.0318   -6964.5430
   1666.58801       0.4351   -1792.3216    1416.58801      -0.0005   -6950.9207
   1666.57275       0.4860   -1798.2008    1416.57275       0.1317   -6966.5438
   1666.55750       0.3115   -1790.6413    1416.55750       0.1738   -6937.2307
   1666.54224       0.3138   -1800.5072    1416.54224       0.1766   -6950.1601
   1666.52698       0.4348   -1805.5773    1416.52698       0.1845   -6937.7166
   1666.51172       0.7350   -1796.9394    1416.51172       0.1369   -6966.8109
   1666.49646       0.4514   -1801.6471    1416.49646       0.1652   -6975.0581
   1666.48120       0.4231   -1807.9597    1416.48120      -0.0341   -6979.2959
   1666.46594       0.5647   -1806.9042    1416.46594      -0.0388   -6966.5114
   1666.45068       0.5096   -1806.7572    1416.45068      -0.1463   -6988.2865
   1666.43542       0.5606   -1791.5120    1416.43542       0.1504   -6990.5837
   1666.42017       0.6467   -1816.8278    1416.42017      -0.0066   -6953.7749
   1666.40491       0.6033   -1825.4213    1416.40491      -0.0449   -6975.0085
   1666.38965       0.5877   -1817.5645    1416.38965      -0.0454   -6975.0184
   1666.37439       0.6625   -1819.4084    1416.37439       0.0807   -6936.1832
   1666.35913       0.6451   -1814.3289    1416.35913       0.0582   -6996.9872
   1666.34387       0.5900   -1817.2052    1416.34387      -0.1908   -6962.1023
   1666.32861       0.6472   -1816.3073    1416.32861      -0.0482   -6983.3985
   1666.31335       0.6437   -1825.7097    1416.31335      -0.0421   -7001.9107
   1666.29810       0.4109   -1826.1457    1416.29810      -0.0589   -7007.8666
   1666.28284       0.6892   -1827.9358    1416.28284      -0.0743   -6988.7997
   1666.26758       0.4867   -1824.3577    1416.26758      -0.0786   -6989.1628
   1666.25232       0.5986   -1826.4404    1416.25232      -0.2354   -7008.5122
   1666.23706       0.6722   -1835.9142    1416.23706      -0.2956   -6981.2015
   1666.22180       0.6664   -1829.4288    1416.22180      -0.1147   -6999.1368
   1666.20654       0.5613   -1843.6900    1416.20654      -0.1008   -6985.4826
   1666.19128       0.6018   -1841.6231    1416.19128      -0.0186   -6989.4508
   1666.17603       0.6468   -1861.5482    1416.17603      -0.0932   -6996.6854
   1666.16077       0.6870   -1844.8209    1416.16077      -0.0687   -7014.1725
   1666.14551       0.7670   -1857.2166    1416.14551      -0.0854   -6993.0470
   1666.13025       0.7668   -1855.4144    1416.13025      -0.0816   -7027.3017
   1666.11499       0.7506   -1851.6315    1416.11499      -0.4086   -7014.9011
   1666.09973       0.6706   -1860.8389    1416.09973      -0.1661   -7022.4498
   1666.08447       0.6421   -1863.8386    1416.08447      -0.0758   -7011.0855
   1666.06921       0.6951   -1863.2755    1416.06921      -0.0361   -7022.3945
   1666.05396       0.7503   -1862.0584    1416.05396       0.0570   -7037.0101
   1666.03870       0.7198   -1864.5923    1416.03870      -0.3078   -7036.2526
   1666.02344       0.8969   -1865.4635    1416.02344      -0.2011   -7046.3463
   1666.00818       0.7401   -1870.1715    1416.00818      -0.1111   -7034.3809
   1665.99292       0.8601   -1866.4157    1415.99292      -0.1151   -7038.8281
   1665.97766       0.6786   -1874.9255    1415.97766      -0.3519   -7037.5562
   1665.96240       0.6689   -1879.1259    1415.96240      -0.1666   -7044.0452
   1665.94714       0.8074   -1881.4622    1415.94714      -0.1851   -7031.0270
   1665.93188       0.8011   -1876.9243    1415.93188      -0.2829   -7010.0041
   1665.91663       0.7252   -1869.8006    1415.91663      -0.1889   -7053.7210
   1665.90137       0.7078   -1882.7295    1415.90137      -0.1651   -7062.6148
   1665.88611       0.8031   -1887.4901    1415.88611      -0.2928   -7065.8130
   1665.87085       0.8167   -1889.7161    1415.87085      -0.3361   -7084.7731
   1665.85559       0.7784   -1885.3697    1415.85559      -0.2207   -7058.0883
   1665.84033       0.7660   -1879.0672    1415.84033      -0.3483   -7072.6929
   1665.82507       0.8111   -1896.3908    1415.82507      -0.1781   -7063.4480
   1665.80981       0.7191   -1901.9815    1415.80981      -0.3089   -7074.8996
   1665.79456       0.7671   -1900.9842    1415.79456      -0.2685   -7098.0220
   1665.77930       0.7636   -1902.4884    1415.77930      -0.3678   -7107.6164
   1665.76404       0.8250   -1888.8596    1415.76404      -0.1061   -7089.6759
   1665.74878       0.7902   -1900.8738    1415.74878      -0.1847   -7076.8606
   1665.73352       0.7746   -1913.7809    1415.73352      -0.0398   -7095.6614
   1665.71826       0.8569   -1922.3396    1415.71826      -0.1028   -7089.6275
   1665.70300       0.8464   -1922.1405    1415.70300      -0.1053   -7105.0146
   1665.68774       0.6909   -1916.6958    1415.68774      -0.2713   -7106.0257
   1665.67249       0.8907   -1926.4639    1415.67249      -0.1666   -7102.1042
   1665.65723       0.8700   -1935.8240    1415.65723      -0.1477   -7118.4436
   1665.64197       0.9109   -1925.0708    1415.64197      -0.3386   -7099.5912
   1665.62671       0.7676   -1943.7815    1415.62671      -0.4955   -7094.6153
   1665.61145       0.8149   -1936.2415    1415.61145      -0.2148   -7111.5737
   1665.59619       0.7229   -1934.5997    1415.59619      -0.3323   -7108.1932
   1665.58093       0.8939   -1939.3555    1415.58093      -0.4432   -7116.3302
   1665.56567       0.9150   -1951.6281    1415.56567      -0.1931   -7143.8173
   1665.55042       0.7808   -1959.8105    1415.55042      -0.3413   -7159.0289
   1665.53516       0.9501   -1947.0844    1415.53516      -0.3919   -7155.7290
   1665.51990       0.9136   -1945.3976    1415.51990      -0.1795   -7172.2363
   1665.50464       0.9993   -1947.8286    1415.50464      -0.3183   -7155.9499
   1665.48938       0.8813   -1964.6386    1415.48938      -0.3026   -7162.6884
   1665.47412       0.8787   -1955.5851    1415.47412      -0.3393   -7154.0926
   1665.45886       1.0845   -1963.8986    1415.45886      -0.4725   -7171.3844
   1665.44360       1.0361   -1959.6351    1415.44360      -0.3492   -7181.7678
   1665.42834       1.1164   -1976.1758    1415.42834      -0.1800   -7193.9739
   1665.41309       0.8090   -1979.9829    1415.41309      -0.2906   -7196.4355
   1665.39783       0.8669   -1984.5569    1415.39783      -0.2176   -7180.2911
   1665.38257       0.8629   -1982.6999    1415.38257      -0.3533   -7210.0074
   1665.36731       1.0398   -1987.1059    1415.36731      -0.2920   -7208.7993
   1665.35205       0.9678   -1982.6170    1415.35205      -0.3664   -7197.6410
   1665.33679       1.0358   -1988.5627    1415.33679      -0.4809   -7219.1640
   1665.32153       0.9184   -1987.1732    1415.32153      -0.5216   -7210.8808
   1665.30627       1.0782   -1990.8347    1415.30627      -0.3018   -7187.2220
   1665.29102       0.9054   -1993.3317    1415.29102      -0.5494   -7233.6101
   1665.27576       0.9748   -1996.7712    1415.27576      -0.2668   -7210.1823
   1665.26050       1.1036   -1996.2871    1415.26050      -0.4904   -7230.4842
   1665.24524       1.0126   -2008.2662    1415.24524      -0.4019   -7225.1979
   1665.22998       0.9386   -2021.2808    1415.22998      -0.5770   -7245.9646
   1665.21472       1.1269   -2023.5693    1415.21472      -0.4011   -7274.3612
   1665.19946       1.0720   -2020.4980    1415.19946      -0.3473   -7260.1319
   1665.18420       1.0249   -2025.5317    1415.18420      -0.3833   -7258.8051
   1665.16895       0.9027   -2012.8558    1415.16895      -0.3278   -7288.3393
   1665.15369       0.9524   -2017.2503    1415.15369      -0.2280   -7287.5122
   1665.13843       1.0127   -2025.2046    1415.13843      -0.2972   -7287.3634
   1665.12317       1.0381   -2027.2075    1415.12317      -0.3448   -7274.5704
   1665.10791       1.0026   -2033.5091    1415.10791      -0.1495   -7308.4104
   1665.09265       0.9847   -2036.3064    1415.09265      -0.2787   -7293.7877
   1665.07739       0.9657   -2048.3280    1415.07739      -0.4048   -7328.6356
   1665.06213       1.1040   -2035.6087    1415.06213      -0.3961   -7319.8648
   1665.04688       1.0437   -2032.2893    1415.04688      -0.3332   -7299.8233
   1665.03162       1.0373   -2046.4381    1415.03162      -0.5709   -7331.8085
   1665.01636       0.9757   -2055.0370    1415.01636      -0.2350   -7312.0678
   1665.00110       1.0604   -2048.1453    1415.00110      -0.5970   -7322.9182
   1664.98584       0.9316   -2051.0215    1414.98584      -0.3975   -7357.3437
   1664.97058       1.1109   -2057.6303    1414.97058      -0.3369   -7340.5030
   1664.95532       1.0817   -2063.7974    1414.95532      -0.3538   -7328.2687
   1664.94006       0.8934   -2062.9321    1414.94006      -0.3309   -7332.2984
   1664.92480       1.0671   -2075.4738    1414.92480      -0.6556   -7323.2308
   1664.90955       1.0646   -2079.9817    1414.90955      -0.4225   -7346.5494
   1664.89429       1.0609   -2083.2868    1414.89429      -0.5701   -7352.0713
   1664.87903       0.9225   -2085.5547    1414.87903      -0.5331   -7353.6503
   1664.86377       0.9971   -2080.7832    1414.86377      -0.5621   -7362.0500
   1664.84851       1.0447   -2078.5551    1414.84851      -0.5939   -7362.9704
   1664.83325       1.0567   -2088.1581    1414.83325      -0.4289   -7390.3418
   1664.81799       0.9955   -2091.3576    1414.81799      -0.6726   -7388.4702
   1664.80273       1.0256   -2101.6783    1414.80273      -0.3013   -7397.9896
   1664.78748       1.1208   -2099.2057    1414.78748      -0.4153   -7406.9484
   1664.77222       1.0744   -2103.4907    1414.77222      -0.3490   -7399.4261
   1664.75696       1.2429   -2102.8653    1414.75696      -0.4176   -7376.6438
   1664.74170       1.0831   -2103.5876    1414.74170      -0.5909   -7400.8545
   1664.72644       1.1396   -2103.1735    1414.72644      -0.4735   -7408.1156
   1664.71118       0.9936   -2110.6387    1414.71118      -0.5037   -7385.5299
   1664.69592       1.1460   -2104.7876    1414.69592      -0.5931   -7393.9954
   1664.68066       1.0693   -2114.7059    1414.68066      -0.4807   -7420.8106
   1664.66541       1.1127   -2120.7149    1414.66541      -0.3390   -7414.6946
   1664.65015       1.0984   -2117.5419    1414.65015      -0.3431   -7437.1266
   1664.63489       1.1534   -2113.8258    1414.63489      -0.3994   -7430.3741
   1664.61963       1.0427   -2108.0686    1414.61963      -0.4633   -7443.4120
   1664.60437       1.0622   -2129.9241    1414.60437      -0.5574   -7448.9688
   1664.58911       1.1474   -2129.0494    1414.58911      -0.5867   -7478.4374
   1664.57385       1.0039   -2133.3872    1414.57385      -0.5301   -7479.6619
   1664.55859       1.0868   -2133.6519    1414.55859      -0.5242   -7495.7115
   1664.54333       1.1319   -2139.1402    1414.54333      -0.5669   -7459.2067
   1664.52808       1.2514   -2128.0899    1414.52808      -0.7145   -7486.8266
   1664.51282       1.1375   -2148.1475    1414.51282      -0.8148   -7455.3751
   1664.49756       1.1233   -2135.5828    1414.49756      -0.5646   -7487.4312
   1664.48230       1.1799   -2145.9153    1414.48230      -0.6213   -7483.4933
   1664.46704       1.1211   -2142.5193    1414.46704      -0.5719   -7487.3325
   1664.45178       0.9941   -2136.5193    1414.45178      -0.3924   -7513.1272
   1664.43652       1.1495   -2157.7904    1414.43652      -0.4834   -7483.8396
   1664.42126       1.0778   -2145.5524    1414.42126      -0.5678   -7463.7937
   1664.40601       1.1553   -2147.2551    1414.40601      -0.5853   -7500.5732
   1664.39075       1.0581   -2150.3759    1414.39075      -0.6302   -7503.8826
   1664.37549       1.0505   -2150.4091    1414.37549      -0.4930   -7515.4922
   1664.36023       1.1613   -2165.3752    1414.36023      -0.6329   -7521.9150
   1664.34497       1.0956   -2171.9199    1414.34497      -0.6048   -7500.1182
   1664.32971       1.1373   -2161.5348    1414.32971      -0.5595   -7529.1095
   1664.31445       1.1415   -2168.6983    1414.31445      -0.6706   -7539.9172
   1664.29919       1.0686   -2160.2669    1414.29919      -0.5709   -7565.7287
   1664.28394       1.1412   -2177.9865    1414.28394      -0.6621   -7547.8974
   1664.26868       0.9847   -2174.9584    1414.26868      -0.6572   -7571.8697
   1664.25342       1.0877   -2169.1146    1414.25342      -0.7053   -7573.1809
   1664.23816       1.1390   -2176.3492    1414.23816      -0.5965   -7563.4945
   1664.22290       1.0961   -2175.8001    1414.22290      -0.5617   -7607.3951
   1664.20764       1.1625   -2186.9873    1414.20764      -0.5635   -7577.8520
   1664.19238       1.1075   -2177.3366    1414.19238      -0.5778   -7579.6676
   1664.17712       1.1385   -2188.5319    1414.17712      -0.5459   -7582.8301
   1664.16187       1.1272   -2199.5053    1414.16187      -0.5471   -7588.1997
   1664.14661       1.1608   -2191.9726    1414.14661      -0.8129   -7599.0131
   1664.13135       1.2051   -2188.3849    1414.13135      -0.5658   -7617.0328
   1664.11609       1.0801   -2198.7788    1414.11609      -0.6630   -7619.4701
   1664.10083       1.0471   -2188.2179    1414.10083      -0.6495   -7638.2463
   1664.08557       0.9777   -2200.6290    1414.08557      -0.7605   -7594.9351
   1664.07031       1.2873   -2202.5880    1414.07031      -0.5816   -7640.5325
   1664.05505       1.0885   -2202.9448    1414.05505      -0.5866   -7629.5083
   1664.03979       1.1757   -2199.8055    1414.03979      -0.6947   -7613.5707
   1664.02454       1.1464   -2199.6824    1414.02454      -0.6671   -7638.7832
   1664.00928       1.2577   -2219.1721    1414.00928      -0.6261   -7647.1841
   1663.99402       1.2698   -2209.6912    1413.99402      -0.6473   -7637.6628
   1663.97876       1.1219   -2217.4596    1413.97876      -0.5634   -7637.8069
   1663.96350       1.1557   -2213.9726    1413.96350      -0.6803   -7653.5616
   1663.94824       1.2041   -2223.3347    1413.94824      -0.6709   -7654.3923
   1663.93298       1.2125   -2206.7038    1413.93298      -0.8069   -7647.2645
   1663.91772       1.1824   -2223.3113    1413.91772      -0.5333   -7698.1310
   1663.90247       1.1904   -2220.7380    1413.90247      -0.6989   -7657.3457
   1663.88721       1.1057   -2220.7250    1413.88721      -0.5817   -7690.4459
   1663.87195       1.1603   -2222.8265    1413.87195      -0.6777   -7672.9319
   1663.85669       1.1007   -2217.1996    1413.85669      -0.6409   -7676.0688
   1663.84143       1.2393   -2220.0739    1413.84143      -0.7205   -7663.1270
   1663.82617       1.0332   -2231.3151    1413.82617      -0.6221   -7670.8004
   1663.81091       1.1629   -2232.5343    1413.81091      -0.8441   -7696.8117
   1663.79565       1.1038   -2235.3217    1413.79565      -0.4615   -7692.0539
   1663.78040       1.0681   -2227.9201    1413.78040      -0.7777   -7661.4985
   1663.76514       1.2315   -2235.1994    1413.76514      -0.6970   -7692.8360
   1663.74988       1.2012   -2234.2852    1413.74988      -0.7190   -7723.2400
   1663.73462       1.1856   -2240.6989    1413.73462      -0.6432   -7713.5850
   1663.71936       1.1626   -2238.1170    1413.71936      -0.6523   -7727.8746
   1663.70410       1.0211   -2239.7846    1413.70410      -0.6653   -7718.3505
   1663.68884       1.0859   -2243.2160    1413.68884      -0.8129   -7709.1131
   1663.67358       1.0735   -2235.7630    1413.67358      -0.7683   -7739.4760
   1663.65833       1.1784   -2247.5879    1413.65833      -0.9576   -7726.2672
   1663.64307       1.0513   -2246.5157    1413.64307      -0.6388   -7759.0158
   1663.62781       1.0279   -2249.9437    1413.62781      -0.6337   -7757.8285
   1663.61255       1.0774   -2245.7050    1413.61255      -0.7072   -7747.4448
   1663.59729       1.1323   -2242.8838    1413.59729      -0.6628   -7736.8298
   1663.58203       1.1667   -2249.5361    1413.58203      -0.6706   -7733.6307
   1663.56677       1.1838   -2260.7237    1413.56677      -0.7337   -7773.5323
   1663.55151       1.0783   -2264.1545    1413.55151      -0.7808   -7746.6531
   1663.53625       0.9278   -2264.9620    1413.53625      -0.6860   -7767.0822
   1663.52100       1.2111   -2249.0047    1413.52100      -0.6871   -7739.8615
   1663.50574       1.0594   -2249.4788    1413.50574      -0.6386   -7774.8061
   1663.49048       1.2005   -2256.5699    1413.49048      -0.8830   -7746.9894
   1663.47522       1.1504   -2263.1281    1413.47522      -0.6914   -7793.7964
   1663.45996       1.0616   -2257.4290    1413.45996      -0.7478   -7755.5794
   1663.44470       1.0892   -2264.0879    1413.44470      -0.7679   -7764.7314
   1663.42944       1.0747   -2264.4825    1413.42944      -0.8530   -7782.0411
   1663.41418       1.1140   -2262.2921    1413.41418      -0.6841   -7786.5774
   1663.39893       1.0613   -2259.9311    1413.39893      -0.6818   -7803.5413
   1663.38367       1.0958   -2267.1074    1413.38367      -0.8092   -7777.9280
   1663.36841       1.1064   -2265.1707    1413.36841      -0.7497   -7796.1727
   1663.35315       0.9557   -2266.5687    1413.35315      -0.7629   -7777.6151
   1663.33789       1.1015   -2274.2679    1413.33789      -0.8881   -7790.9757
   1663.32263       1.0775   -2272.4259    1413.32263      -0.5836   -7807.5129
   1663.30737       1.1119   -2263.9460    1413.30737      -0.8521   -7813.5283
   1663.29211       1.0886   -2267.7001    1413.29211      -0.8325   -7823.0776
   1663.27686       1.1881   -2268.6557    1413.27686      -0.7338   -7809.8390
   1663.26160       1.0185   -2274.8355    1413.26160      -0.6932   -7790.8816
   1663.24634       1.0250   -2272.0987    1413.24634      -0.7049   -7811.4628
   1663.23108       1.0205   -2271.7380    1413.23108      -0.5591   -7828.4495
   1663.21582       1.0594   -2277.6395    1413.21582      -0.5737   -7797.4337
   1663.20056       1.0723   -2269.4261    1413.20056      -0.7097   -7818.5142
   1663.18530       0.9959   -2276.7889    1413.18530      -0.6128   -7820.7957
   1663.17004       1.1670   -2275.6942    1413.17004      -0.8668   -7810.6682
   1663.15479       0.9877   -2282.5888    1413.15479      -0.7559   -7812.6992
   1663.13953       1.0171   -2270.7800    1413.13953      -0.7633   -7831.2760
   1663.12427       0.9379   -2275.2857    1413.12427      -0.6203   -7825.0848
   1663.10901       1.0611   -2271.7940    1413.10901      -0.6384   -7789.5049
   1663.09375       1.3747   -2270.5808    1413.09375      -0.8737   -7851.1936
   1663.07849       1.0619   -2268.2785    1413.07849      -0.7176   -7846.6080
   1663.06323       0.9944   -2276.7027    1413.06323      -0.7254   -7847.3353
   1663.04797       0.9294   -2283.2315    1413.04797      -0.6886   -7854.7039
   1663.03271       0.9603   -2269.8804    1413.03271      -0.7828   -7838.2774
   1663.01746       0.9760   -2274.7895    1413.01746      -0.5252   -7870.4677
   1663.00220       0.9889   -2280.7924    1413.00220      -0.7931   -7844.6973
   1662.98694       1.1115   -2280.0044    1412.98694      -0.7567   -7834.7307
   1662.97168       1.0407   -2281.4568    1412.97168      -0.5205   -7868.4523
   1662.95642       1.1270   -2281.6209    1412.95642      -0.7983   -7855.2800
   1662.94116       0.9262   -2284.1600    1412.94116      -0.7559   -7884.3863
   1662.92590       0.8957   -2279.0603    1412.92590      -0.7428   -7863.3591
   1662.91064       1.0175   -2278.9927    1412.91064      -0.7052   -7868.4167
   1662.89539       0.9517   -2282.3087    1412.89539      -0.7763   -7859.3959
   1662.88013       0.8866   -2290.2723    1412.88013      -0.4833   -7865.3706
   1662.86487       1.0071   -2290.0257    1412.86487      -0.4764   -7880.0873
   1662.84961       1.0056   -2284.2691    1412.84961      -0.8011   -7859.3205
   1662.83435       1.0246   -2283.5646    1412.83435      -0.7588   -7889.3017
   1662.81909       0.9605   -2283.3775    1412.81909      -0.5996   -7886.7178
   1662.80383       0.9594   -2271.7588    1412.80383      -0.6509   -7869.9275
   1662.78857       0.9600   -2284.5578    1412.78857      -0.8292   -7878.8291
   1662.77332       0.9119   -2281.3770    1412.77332      -0.7261   -7871.7954
   1662.75806       0.9959   -2280.0143    1412.75806      -0.5696   -7875.8607
   1662.74280       1.0602   -2278.1028    1412.74280      -0.6693   -7894.1260
   1662.72754       0.9424   -2290.8343    1412.72754      -0.6942   -7884.8127
   1662.71228       1.0292   -2277.4488    1412.71228      -0.6134   -7872.5852
   1662.69702       1.0401   -2278.8084    1412.69702      -0.7222   -7856.6223
   1662.68176       1.0729   -2270.5925    1412.68176      -0.4423   -7890.9426
   1662.66650       0.8420   -2284.7878    1412.66650      -0.6259   -7870.0756
   1662.65125       0.7890   -2273.1201    1412.65125      -0.6024   -7879.2419
   1662.63599       0.8796   -2282.4981    1412.63599      -0.6184   -7888.6064
   1662.62073       0.9447   -2287.6619    1412.62073      -0.7501   -7872.5261
   1662.60547       1.0818   -2280.5666    1412.60547      -0.5199   -7893.2117
   1662.59021       1.0007   -2293.2101    1412.59021      -0.5070   -7881.6060
   1662.57495       0.9812   -2281.4944    1412.57495      -0.6028   -7882.0323
   1662.55969       0.8786   -2284.1093    1412.55969      -0.5654   -7881.3049
   1662.54443       0.8490   -2287.1796    1412.54443      -0.6004   -7887.2930
   1662.52917       0.9448   -2279.8343    1412.52917      -0.6150   -7872.3883
   1662.51392       0.8723   -2294.2287    1412.51392      -0.5686   -7861.2091
   1662.49866       0.9520   -2272.5236    1412.49866      -0.6099   -7880.1655
   1662.48340       0.9514   -2286.4906    1412.48340      -0.6124   -7864.9554
   1662.46814       0.8024   -2264.9928    1412.46814      -0.2031   -7852.0899
   1662.45288       1.0309   -2273.6209    1412.45288      -0.3685   -7853.5776
   1662.43762       0.9302   -2282.2204    1412.43762      -0.4474   -7864.4285
   1662.42236       0.9287   -2269.0087    1412.42236      -0.5650   -7866.5409
   1662.40710       0.8867   -2272.8789    1412.40710      -0.4197   -7862.2602
   1662.39185       0.9357   -2278.2470    1412.39185      -0.3886   -7858.5897
   1662.37659       0.8636   -2276.2626    1412.37659      -0.3535   -7900.7564
   1662.36133       0.8723   -2273.4640    1412.36133      -0.4453   -7863.2268
   1662.34607       0.8987   -2268.5002    1412.34607      -0.1615   -7871.7869
   1662.33081       0.8449   -2264.4679    1412.33081      -0.4950   -7886.0860
   1662.31555       0.9746   -2267.0168    1412.31555      -0.4238   -7870.2002
   1662.30029       0.8983   -2262.4175    1412.30029      -0.2398   -7876.2143
   1662.28503       0.8444   -2267.3741    1412.28503      -0.3456   -7864.9998
   1662.26978       0.8584   -2273.9779    1412.26978      -0.6013   -7885.9983
   1662.25452       0.8550   -2259.0555    1412.25452      -0.3328   -7857.5722
   1662.23926       0.8470   -2261.4131    1412.23926      -0.0659   -7860.6977
   1662.22400       0.7560   -2252.4647    1412.22400      -0.4147   -7828.6145
   1662.20874       0.8362   -2266.9967    1412.20874      -0.1586   -7851.9971
   1662.19348       0.8748   -2258.5784    1412.19348      -0.4592   -7827.9135
   1662.17822       0.8305   -2264.0856    1412.17822      -0.2288   -7832.7960
   1662.16296       0.7675   -2255.7138    1412.16296      -0.2730   -7857.0284
   1662.14771       0.8029   -2238.3372    1412.14771      -0.2774   -7858.7574
   1662.13245       0.7573   -2236.8691    1412.13245      -0.1746   -7850.5025
   1662.11719       0.8756   -2253.3472    1412.11719      -0.1459   -7830.8644
   1662.10193       0.8199   -2253.2371    1412.10193      -0.2639   -7820.2110
   1662.08667       0.8433   -2247.7867    1412.08667      -0.0890   -7845.0067
   1662.07141       0.9723   -2234.5185    1412.07141      -0.3108   -7844.2271
   1662.05615       0.8163   -2242.9623    1412.05615      -0.2051   -7830.0534
   1662.04089       0.9473   -2233.0032    1412.04089      -0.2828   -7867.6543
   1662.02563       0.8879   -2233.9309    1412.02563      -0.1525   -7868.9167
   1662.01038       0.8469   -2250.0984    1412.01038      -0.1511   -7831.8227
   1661.99512       0.8121   -2237.8248    1411.99512      -0.1141   -7830.5794
   1661.97986       0.7396   -2235.7705    1411.97986      -0.1639   -7865.4351
   1661.96460       0.6989   -2233.8409    1411.96460      -0.0831   -7819.2361
   1661.94934       0.8858   -2215.7674    1411.94934      -0.0171   -7805.3216
   1661.93408       0.9711   -2232.0166    1411.93408      -0.2135   -7801.5855
   1661.91882       0.8666   -2236.0874    1411.91882      -0.0346   -7803.2160
   1661.90356       0.7380   -2236.7065    1411.90356      -0.2893   -7813.5803
   1661.88831       0.6398   -2247.2306    1411.88831      -0.0361   -7774.4607
   1661.87305       0.9343   -2220.4366    1411.87305      -0.1212   -7842.9660
   1661.85779       0.8772   -2240.3317    1411.85779      -0.0682   -7814.6217
   1661.84253       0.7366   -2226.4056    1411.84253       0.0048   -7822.9070
   1661.82727       0.8723   -2229.5146    1411.82727       0.1697   -7803.5072
   1661.81201       0.8593   -2234.7678    1411.81201       0.1731   -7786.9025
   1661.79675       0.8922   -2225.2174    1411.79675       0.1739   -7800.0089
   1661.78149       0.7449   -2208.5505    1411.78149       0.1062   -7840.7562
   1661.76624       0.9551   -2213.6500    1411.76624       0.1228   -7830.2754
   1661.75098       0.7101   -2221.7996    1411.75098       0.0875   -7766.6399
   1661.73572       0.8437   -2209.4597    1411.73572       0.1652   -7811.2814
   1661.72046       1.0250   -2211.4440    1411.72046       0.3562   -7816.0023
   1661.70520       0.9294   -2207.4002    1411.70520       0.2614   -7774.1610
   1661.68994       0.7383   -2219.9793    1411.68994      -0.0480   -7810.5048
   1661.67468       0.7060   -2227.7722    1411.67468       0.3619   -7753.1373
   1661.65942       0.9126   -2210.6753    1411.65942       0.0905   -7788.0398
   1661.64417       0.8636   -2207.9513    1411.64417       0.0525   -7781.9318
   1661.62891       0.8175   -2191.8285    1411.62891       0.2308   -7750.7930
   1661.61365       0.8780   -2204.3319    1411.61365       0.2154   -7772.1593
   1661.59839       0.8423   -2203.6324    1411.59839       0.1642   -7728.1234
   1661.58313       0.7871   -2208.0764    1411.58313       0.0336   -7724.3693
   1661.56787       0.9744   -2190.9818    1411.56787       0.1552   -7765.9082
   1661.55261       0.7856   -2198.0966    1411.55261       0.0295   -7761.5186
   1661.53735       0.7624   -2196.7638    1411.53735       0.2088   -7747.7984
   1661.52209       1.0054   -2190.7822    1411.52209       0.1602   -7740.0922
   1661.50684       0.8948   -2193.7427    1411.50684       0.4313   -7704.5873
   1661.49158       0.8897   -2197.6931    1411.49158       0.5494   -7728.6020
   1661.47632       0.8292   -2187.6684    1411.47632       0.6032   -7715.6531
   1661.46106       0.8694   -2196.0005    1411.46106       0.4384   -7731.0218
   1661.44580       0.9556   -2178.8771    1411.44580       0.3700   -7754.1217
   1661.43054       0.8659   -2176.5531    1411.43054       0.4216   -7684.6474
   1661.41528       0.7521   -2180.7249    1411.41528       0.5647   -7748.9621
   1661.40002       0.9679   -2179.8156    1411.40002       0.4455   -7715.2926
   1661.38477       0.8147   -2184.0808    1411.38477       0.2607   -7724.2487
   1661.36951       0.7626   -2177.0136    1411.36951       0.4944   -7699.6774
   1661.35425       0.7689   -2172.3376    1411.35425       0.6203   -7685.6378
   1661.33899       0.8077   -2164.9717    1411.33899       0.4709   -7705.1722
   1661.32373       0.6501   -2188.5631    1411.32373       0.6416   -7700.1014
   1661.30847       0.8187   -2161.2525    1411.30847       0.3344   -7673.5946
   1661.29321       0.8940   -2163.2136    1411.29321       0.4840   -7714.5329
   1661.27795       0.9357   -2156.7012    1411.27795       0.4392   -7677.1930
   1661.26270       0.8520   -2176.0016    1411.26270       0.7736   -7692.6872
   1661.24744       0.8324   -2149.8173    1411.24744       0.5892   -7665.4308
   1661.23218       0.7246   -2153.9151    1411.23218       0.6445   -7633.8214
   1661.21692       0.7679   -2162.0689    1411.21692       0.6654   -7678.3745
   1661.20166       0.8096   -2161.4928    1411.20166       0.5340   -7641.2829
   1661.18640       0.8382   -2146.0313    1411.18640       0.7633   -7651.8422
   1661.17114       0.7316   -2162.6963    1411.17114       0.6921   -7646.2797
   1661.15588       0.6469   -2144.3073    1411.15588       0.8170   -7636.5695
   1661.14062       0.6591   -2148.5354    1411.14062       0.8616   -7631.7364
   1661.12537       0.7324   -2149.1190    1411.12537       0.9074   -7674.0670
   1661.11011       0.8872   -2134.7599    1411.11011       0.9248   -7667.4451
   1661.09485       0.7617   -2143.0125    1411.09485       0.9580   -7662.3597
   1661.07959       0.7179   -2143.1937    1411.07959       0.7933   -7651.3092
   1661.06433       0.8168   -2140.4260    1411.06433       0.8590   -7624.2569
   1661.04907       0.8638   -2135.6971    1411.04907       0.6913   -7626.6215
   1661.03381       0.7515   -2127.3449    1411.03381       0.6312   -7645.8349
   1661.01855       0.7689   -2125.3559    1411.01855       0.8557   -7631.8809
   1661.00330       0.8443   -2128.1111    1411.00330       1.0423   -7635.0740
   1660.98804       0.7663   -2135.9435    1410.98804       0.8477   -7638.1418
   1660.97278       0.8201   -2126.2279    1410.97278       0.9851   -7634.9852
   1660.95752       0.8303   -2128.4520    1410.95752       1.1623   -7597.0950
   1660.94226       0.8691   -2129.9009    1410.94226       1.1291   -7611.4873
   1660.92700       0.7234   -2128.3966    1410.92700       0.9882   -7593.7493
   1660.91174       0.8871   -2116.0785    1410.91174       1.1545   -7612.6350
   1660.89648       0.7529   -2108.5855    1410.89648       1.1039   -7593.4341
   1660.88123       0.8329   -2115.2687    1410.88123       1.0589   -7584.4158
   1660.86597       0.6933   -2107.4420    1410.86597       0.8606   -7546.6475
   1660.85071       0.8315   -2104.2100    1410.85071       1.1017   -7582.7899
   1660.83545       0.7105   -2098.4590    1410.83545       1.2180   -7573.5539
   1660.82019       0.7274   -2108.0346    1410.82019       1.1070   -7581.3502
   1660.80493       0.7085   -2096.1596    1410.80493       1.2785   -7618.2766
   1660.78967       0.8970   -2111.4552    1410.78967       0.8523   -7583.3123
   1660.77441       0.8310   -2096.5899    1410.77441       1.1611   -7574.2767
   1660.75916       0.7324   -2095.7558    1410.75916       1.2310   -7568.0374
   1660.74390       0.7633   -2094.8699    1410.74390       1.2048   -7549.2941
   1660.72864       0.7672   -2092.2823    1410.72864       1.4514   -7573.8070
   1660.71338       0.8251   -2091.2475    1410.71338       1.1742   -7579.2946
   1660.69812       0.8637   -2092.2699    1410.69812       1.1042   -7561.6942
   1660.68286       0.9085   -2085.8516    1410.68286       1.2811   -7559.3166
   1660.66760       0.7713   -2087.8630    1410.66760       1.3275   -7556.0917
   1660.65234       0.6858   -2076.4238    1410.65234       1.3638   -7569.1028
   1660.63708       0.7344   -2071.9153    1410.63708       1.3091   -7556.0318
   1660.62183       0.7016   -2079.6390    1410.62183       1.2549   -7560.3015
   1660.60657       0.6314   -2068.7939    1410.60657       1.3316   -7544.7702
   1660.59131       0.8555   -2065.8620    1410.59131       1.3007   -7538.3653
   1660.57605       0.8907   -2079.0834    1410.57605       1.5146   -7537.0761
   1660.56079       0.9132   -2068.4543    1410.56079       1.5550   -7550.2376
   1660.54553       0.7248   -2070.2646    1410.54553       1.4931   -7536.3414
   1660.53027       0.8032   -2056.3973    1410.53027       1.3718   -7497.3468
   1660.51501       0.9218   -2061.1262    1410.51501       1.3536   -7496.4556
   1660.49976       0.6169   -2067.6055    1410.49976       1.5094   -7496.8244
   1660.48450       0.8932   -2059.4556    1410.48450       1.4663   -7512.2798
   1660.46924       0.8386   -2056.3117    1410.46924       1.3250   -7519.3793
   1660.45398       0.8492   -2048.3365    1410.45398       1.3779   -7518.2744
   1660.43872       0.8212   -2048.4921    1410.43872       1.7507   -7495.6107
   1660.42346       0.7367   -2031.9823    1410.42346       1.3934   -7515.7660
   1660.40820       0.7349   -2048.0258    1410.40820       1.3901   -7530.3486
   1660.39294       0.7952   -2040.2428    1410.39294       1.7354   -7513.8391
   1660.37769       0.8210   -2046.2829    1410.37769       1.5824   -7515.6548
   1660.36243       0.6051   -2053.5852    1410.36243       1.6437   -7481.6736
   1660.34717       0.8367   -2028.8223    1410.34717       1.8590   -7508.3652
   1660.33191       0.6383   -2042.8086    1410.33191       1.6905   -7479.7696
   1660.31665       0.6930   -2040.8358    1410.31665       1.8311   -7489.4939
   1660.30139       0.5626   -2026.6215    1410.30139       1.7119   -7505.0611
   1660.28613       0.7060   -2024.6105    1410.28613       1.9239   -7490.4399
   1660.27087       0.8107   -2027.8183    1410.27087       1.7418   -7441.6989
   1660.25562       0.7859   -2012.2318    1410.25562       1.8838   -7501.5294
   1660.24036       0.6263   -2019.7765    1410.24036       1.8577   -7507.5009
   1660.22510       0.7199   -2010.9168    1410.22510       1.9349   -7521.4941
   1660.20984       0.6183   -2015.7612    1410.20984       1.7711   -7473.7185
   1660.19458       0.5410   -2014.7878    1410.19458       1.8359   -7466.5481
   1660.17932       0.2702   -1998.5216    1410.17932       1.9993   -7451.8838
   1660.16406       1.4229   -1989.5755    1410.16406       2.0098   -7515.2578
   1660.14880       0.6546   -2012.2904    1410.14880       1.9709   -7461.5106
   1660.13354       0.6972   -1994.4391    1410.13354       1.8217   -7460.4291
   1660.11829       0.7331   -2005.9690    1410.11829       1.6942   -7450.8955
   1660.10303       1.0218   -2003.6626    1410.10303       1.9355   -7478.3412
   1660.08777       0.6006   -1982.3188    1410.08777       1.8984   -7472.0876
   1660.07251       0.7164   -1984.1831    1410.07251       2.0642   -7480.6240
   1660.05725       0.6834   -1972.3374    1410.05725       1.9310   -7496.6271
   1660.04199       0.6369   -1984.2745    1410.04199       1.9023   -7482.6848
   1660.02673       0.6034   -1969.3047    1410.02673       1.9820   -7472.1431
   1660.01147       0.7221   -1976.5578    1410.01147       2.2510   -7466.8024
   1659.99622       0.7400   -1983.2416    1409.99622       2.2318   -7476.4722
