#     FILENAME=Skynet_59473_ngc_1530_62134_10963.A.onoff.cal.txt
#     BASENAME=Skynet_59473_ngc_1530_62134_10963
#      CONTROL=SKYNET
#     PROJCODE=Skynet_59473_ngc_1530_62134
#     DATAROOT=/raid/scratch/cyborg/SkynetData
#      DATADIR=/raid/scratch/cyborg
#     DATADIR2=/raid/scratch/cyborg/SkynetData/Skynet_59473_ngc_1530_62134/Cyb
#     SCANNAME=2019_06_26_10
#     SRC_NAME=ngc_1530
#     OBSERVER=sdss3_39398
#     DATE_OBS=2021-09-16T02:14:49.400
#        OBSID=62134
#      SCANNUM=10963
#          MJD=59473.0936273
#          UTC=08089
#     SCANTYPE=onoff
#     DATAMODE=HIRES
#     RECEIVER=Rx1_2
#      OBSFREQ=1395.0000
# Actual_FREQ1=1408.6000,
# Actual_FREQ2=1408.6000
#    LO1Tuning=6858.6000
#     RFFILTER=1355_1435
#        OBSBW=-15.6250
#     EFFBANDW=15.6250
#        NCHAN=1024
#    STARTCHAN=51
#     STOPCHAN=972
#         TINT=0.3000
#         TBIN=0.00104858
#       ACCLEN=2048 
#     DURATION=408.90
#     EXPOSURE=388.75
#        FOCUS=37.071
#       RA,DEC=04:24:30.06, 75:17:45.52
#      RA(deg)=71.76919
#     DEC(deg)=75.29560
#   WIDTH(deg)=3.0243x0.0088
#    AZIM(deg)=13.6728
#    ELEV(deg)=29.5730
#     COORDREF=RA_DEC_
#         HREF=65.8629
#         VREF=75.2956
#      RADESYS=FK5
#       OFFSYS=RADEC
#      EQUINOX=2000.00
#     IFATTENS=23.00, 8.00
#   BALANCELEV=1.200 
#   POWER_XLYR=[1.41, 2.59] 
#       VELDEF=RADI-OBS 
#     VELOCITY=0.000 
#         NPOL=2 
#      POLMODE=Linear 
#      POLTYPE=XXYY 
#      WARNING=None 
#     NOISECAL=HI 
#       PRECAL=2 
#      POSTCAL=2 
#     CRYOTEMP=17 
#      BOXTEMP=23 
#         TSYS=XX1:430.20, YY1:334.92
#         TSYS=XX2:430.20, YY2:334.92
#         TCAL=XX1:9.16, YY1:9.99
#         TCAL=XX2:9.16, YY2:9.99
# Calibrated spectra: Tsys*(ON-OFF)/OFF 
#                
#                
#Freq1(MHz)         XX1          YY1   Freq2(MHz)       XX2         YY2 
   1415.63430      -3.4124      -1.7079    1415.63430      -3.4124      -1.7079
   1415.61904      -3.4180      -1.5959    1415.61904      -3.4180      -1.5959
   1415.60378      -3.7493      -2.0893    1415.60378      -3.7493      -2.0893
   1415.58853      -3.9663      -1.8880    1415.58853      -3.9663      -1.8880
   1415.57327      -3.9222      -1.8369    1415.57327      -3.9222      -1.8369
   1415.55801      -3.4788      -2.1813    1415.55801      -3.4788      -2.1813
   1415.54275      -4.5739      -1.8971    1415.54275      -4.5739      -1.8971
   1415.52749      -3.8446      -1.7566    1415.52749      -3.8446      -1.7566
   1415.51223      -4.0715      -1.5002    1415.51223      -4.0715      -1.5002
   1415.49697      -3.2715      -1.6429    1415.49697      -3.2715      -1.6429
   1415.48171      -3.3951      -1.9534    1415.48171      -3.3951      -1.9534
   1415.46646      -3.7710      -2.1211    1415.46646      -3.7710      -2.1211
   1415.45120      -3.8773      -2.1768    1415.45120      -3.8773      -2.1768
   1415.43594      -3.9218      -2.3675    1415.43594      -3.9218      -2.3675
   1415.42068      -4.2497      -1.6916    1415.42068      -4.2497      -1.6916
   1415.40542      -3.7084      -1.2553    1415.40542      -3.7084      -1.2553
   1415.39016      -3.7862      -2.2911    1415.39016      -3.7862      -2.2911
   1415.37490      -3.3240      -2.1726    1415.37490      -3.3240      -2.1726
   1415.35964      -3.4497      -2.1705    1415.35964      -3.4497      -2.1705
   1415.34438      -3.2916      -1.6753    1415.34438      -3.2916      -1.6753
   1415.32913      -4.0290      -1.7363    1415.32913      -4.0290      -1.7363
   1415.31387      -3.6719      -2.5986    1415.31387      -3.6719      -2.5986
   1415.29861      -3.4971      -1.5054    1415.29861      -3.4971      -1.5054
   1415.28335      -3.1627      -2.1985    1415.28335      -3.1627      -2.1985
   1415.26809      -3.3709      -2.4158    1415.26809      -3.3709      -2.4158
   1415.25283      -3.4751      -1.8445    1415.25283      -3.4751      -1.8445
   1415.23757      -3.8529      -1.7033    1415.23757      -3.8529      -1.7033
   1415.22231      -3.6063      -2.0774    1415.22231      -3.6063      -2.0774
   1415.20706      -3.3135      -1.8446    1415.20706      -3.3135      -1.8446
   1415.19180      -3.2839      -1.7895    1415.19180      -3.2839      -1.7895
   1415.17654      -3.1687      -1.4416    1415.17654      -3.1687      -1.4416
   1415.16128      -3.5290      -2.2019    1415.16128      -3.5290      -2.2019
   1415.14602      -3.7282      -1.2985    1415.14602      -3.7282      -1.2985
   1415.13076      -3.8279      -2.1550    1415.13076      -3.8279      -2.1550
   1415.11550      -3.5463      -2.2116    1415.11550      -3.5463      -2.2116
   1415.10024      -3.2547      -2.1547    1415.10024      -3.2547      -2.1547
   1415.08499      -3.4748      -1.9124    1415.08499      -3.4748      -1.9124
   1415.06973      -3.3210      -1.9225    1415.06973      -3.3210      -1.9225
   1415.05447      -2.5701      -1.5225    1415.05447      -2.5701      -1.5225
   1415.03921      -2.9193      -1.8629    1415.03921      -2.9193      -1.8629
   1415.02395      -3.1697      -1.5243    1415.02395      -3.1697      -1.5243
   1415.00869      -3.5958      -1.5488    1415.00869      -3.5958      -1.5488
   1414.99343      -3.3700      -1.9192    1414.99343      -3.3700      -1.9192
   1414.97817      -3.1473      -1.9033    1414.97817      -3.1473      -1.9033
   1414.96292      -3.9276      -1.2336    1414.96292      -3.9276      -1.2336
   1414.94766      -3.5470      -1.7832    1414.94766      -3.5470      -1.7832
   1414.93240      -3.6312      -1.3814    1414.93240      -3.6312      -1.3814
   1414.91714      -3.2882      -1.5332    1414.91714      -3.2882      -1.5332
   1414.90188      -3.5519      -1.6957    1414.90188      -3.5519      -1.6957
   1414.88662      -3.3574      -1.5434    1414.88662      -3.3574      -1.5434
   1414.87136      -3.1500      -2.0407    1414.87136      -3.1500      -2.0407
   1414.85610      -3.2519      -1.1835    1414.85610      -3.2519      -1.1835
   1414.84084      -3.2170      -1.5210    1414.84084      -3.2170      -1.5210
   1414.82559      -3.2473      -1.8281    1414.82559      -3.2473      -1.8281
   1414.81033      -3.5190      -1.5406    1414.81033      -3.5190      -1.5406
   1414.79507      -2.6514      -2.0679    1414.79507      -2.6514      -2.0679
   1414.77981      -2.9498      -1.4460    1414.77981      -2.9498      -1.4460
   1414.76455      -2.9792      -1.8163    1414.76455      -2.9792      -1.8163
   1414.74929      -3.6379      -1.4489    1414.74929      -3.6379      -1.4489
   1414.73403      -3.3060      -1.6339    1414.73403      -3.3060      -1.6339
   1414.71877      -3.3451      -1.7840    1414.71877      -3.3451      -1.7840
   1414.70352      -3.1223      -1.5481    1414.70352      -3.1223      -1.5481
   1414.68826      -4.0202      -1.5633    1414.68826      -4.0202      -1.5633
   1414.67300      -3.5886      -1.5109    1414.67300      -3.5886      -1.5109
   1414.65774      -3.3808      -1.6029    1414.65774      -3.3808      -1.6029
   1414.64248      -2.8807      -1.2264    1414.64248      -2.8807      -1.2264
   1414.62722      -2.9047      -0.7891    1414.62722      -2.9047      -0.7891
   1414.61196      -3.1115      -1.5785    1414.61196      -3.1115      -1.5785
   1414.59670      -3.6175      -0.9020    1414.59670      -3.6175      -0.9020
   1414.58145      -3.2182      -1.5626    1414.58145      -3.2182      -1.5626
   1414.56619      -2.8113      -1.7446    1414.56619      -2.8113      -1.7446
   1414.55093      -3.5613      -0.8918    1414.55093      -3.5613      -0.8918
   1414.53567      -2.9516      -1.2164    1414.53567      -2.9516      -1.2164
   1414.52041      -2.9086      -1.3048    1414.52041      -2.9086      -1.3048
   1414.50515      -2.9249      -0.9067    1414.50515      -2.9249      -0.9067
   1414.48989      -3.0782      -1.4063    1414.48989      -3.0782      -1.4063
   1414.47463      -3.0555      -1.2884    1414.47463      -3.0555      -1.2884
   1414.45937      -3.3775      -1.4186    1414.45937      -3.3775      -1.4186
   1414.44412      -3.1419      -1.1262    1414.44412      -3.1419      -1.1262
   1414.42886      -3.4076      -1.4732    1414.42886      -3.4076      -1.4732
   1414.41360      -3.1757      -0.9703    1414.41360      -3.1757      -0.9703
   1414.39834      -2.9932      -0.6988    1414.39834      -2.9932      -0.6988
   1414.38308      -3.1450      -1.2064    1414.38308      -3.1450      -1.2064
   1414.36782      -3.2142      -1.2889    1414.36782      -3.2142      -1.2889
   1414.35256      -3.5116      -1.0895    1414.35256      -3.5116      -1.0895
   1414.33730      -3.0679      -1.0427    1414.33730      -3.0679      -1.0427
   1414.32205      -2.8458      -0.8338    1414.32205      -2.8458      -0.8338
   1414.30679      -2.9997      -1.1259    1414.30679      -2.9997      -1.1259
   1414.29153      -3.3787      -1.0470    1414.29153      -3.3787      -1.0470
   1414.27627      -3.1713      -1.1122    1414.27627      -3.1713      -1.1122
   1414.26101      -2.8992      -1.5412    1414.26101      -2.8992      -1.5412
   1414.24575      -2.8524      -1.1312    1414.24575      -2.8524      -1.1312
   1414.23049      -2.7793      -0.7474    1414.23049      -2.7793      -0.7474
   1414.21523      -2.9780      -0.8602    1414.21523      -2.9780      -0.8602
   1414.19998      -3.0463      -1.6574    1414.19998      -3.0463      -1.6574
   1414.18472      -3.4881      -1.1034    1414.18472      -3.4881      -1.1034
   1414.16946      -2.7375      -0.8968    1414.16946      -2.7375      -0.8968
   1414.15420      -3.0486      -1.2371    1414.15420      -3.0486      -1.2371
   1414.13894      -3.3626      -1.2029    1414.13894      -3.3626      -1.2029
   1414.12368      -3.0282      -0.7424    1414.12368      -3.0282      -0.7424
   1414.10842      -2.9449      -1.2978    1414.10842      -2.9449      -1.2978
   1414.09316      -3.2389      -1.0181    1414.09316      -3.2389      -1.0181
   1414.07791      -2.7575      -0.9578    1414.07791      -2.7575      -0.9578
   1414.06265      -2.3986      -0.2705    1414.06265      -2.3986      -0.2705
   1414.04739      -3.5796      -1.2330    1414.04739      -3.5796      -1.2330
   1414.03213      -2.2977      -0.8760    1414.03213      -2.2977      -0.8760
   1414.01687      -3.5266      -0.6428    1414.01687      -3.5266      -0.6428
   1414.00161      -3.4522      -1.1574    1414.00161      -3.4522      -1.1574
   1413.98635      -3.1205      -0.9851    1413.98635      -3.1205      -0.9851
   1413.97109      -2.7523      -0.8095    1413.97109      -2.7523      -0.8095
   1413.95583      -3.4725      -0.8487    1413.95583      -3.4725      -0.8487
   1413.94058      -3.1471      -0.8856    1413.94058      -3.1471      -0.8856
   1413.92532      -3.5199      -1.2526    1413.92532      -3.5199      -1.2526
   1413.91006      -3.1226      -1.0420    1413.91006      -3.1226      -1.0420
   1413.89480      -2.8171      -0.6395    1413.89480      -2.8171      -0.6395
   1413.87954      -2.4718      -0.9431    1413.87954      -2.4718      -0.9431
   1413.86428      -2.5212      -0.8019    1413.86428      -2.5212      -0.8019
   1413.84902      -3.0956      -0.7447    1413.84902      -3.0956      -0.7447
   1413.83376      -2.7627      -1.1480    1413.83376      -2.7627      -1.1480
   1413.81851      -3.1403      -1.0953    1413.81851      -3.1403      -1.0953
   1413.80325      -2.8629      -0.7346    1413.80325      -2.8629      -0.7346
   1413.78799      -2.8633      -1.2268    1413.78799      -2.8633      -1.2268
   1413.77273      -2.9598      -0.9828    1413.77273      -2.9598      -0.9828
   1413.75747      -3.2139      -0.8459    1413.75747      -3.2139      -0.8459
   1413.74221      -3.0056      -0.7313    1413.74221      -3.0056      -0.7313
   1413.72695      -3.3560      -0.7710    1413.72695      -3.3560      -0.7710
   1413.71169      -3.3520      -0.4123    1413.71169      -3.3520      -0.4123
   1413.69644      -2.9012      -0.9381    1413.69644      -2.9012      -0.9381
   1413.68118      -3.4270      -0.8092    1413.68118      -3.4270      -0.8092
   1413.66592      -3.5067      -1.4097    1413.66592      -3.5067      -1.4097
   1413.65066      -3.2348      -0.6691    1413.65066      -3.2348      -0.6691
   1413.63540      -2.9977      -0.7808    1413.63540      -2.9977      -0.7808
   1413.62014      -2.5817      -0.7210    1413.62014      -2.5817      -0.7210
   1413.60488      -2.7350      -1.1731    1413.60488      -2.7350      -1.1731
   1413.58962      -2.6606      -1.3495    1413.58962      -2.6606      -1.3495
   1413.57437      -2.6469      -0.8544    1413.57437      -2.6469      -0.8544
   1413.55911      -3.4061      -0.4666    1413.55911      -3.4061      -0.4666
   1413.54385      -2.4375      -0.9696    1413.54385      -2.4375      -0.9696
   1413.52859      -3.0307      -0.6512    1413.52859      -3.0307      -0.6512
   1413.51333      -2.8597      -0.8780    1413.51333      -2.8597      -0.8780
   1413.49807      -2.7484      -0.6033    1413.49807      -2.7484      -0.6033
   1413.48281      -3.0630      -1.2224    1413.48281      -3.0630      -1.2224
   1413.46755      -2.6835      -0.3359    1413.46755      -2.6835      -0.3359
   1413.45229      -2.7139      -0.7148    1413.45229      -2.7139      -0.7148
   1413.43704      -2.5340      -1.2156    1413.43704      -2.5340      -1.2156
   1413.42178      -2.9949      -0.3899    1413.42178      -2.9949      -0.3899
   1413.40652      -2.1045      -0.4765    1413.40652      -2.1045      -0.4765
   1413.39126      -3.2707      -0.7019    1413.39126      -3.2707      -0.7019
   1413.37600      -2.9766      -0.6233    1413.37600      -2.9766      -0.6233
   1413.36074      -3.4250      -0.4170    1413.36074      -3.4250      -0.4170
   1413.34548      -3.1925      -0.9457    1413.34548      -3.1925      -0.9457
   1413.33022      -3.4744      -1.2453    1413.33022      -3.4744      -1.2453
   1413.31497      -3.3293      -1.4557    1413.31497      -3.3293      -1.4557
   1413.29971      -2.7136      -0.8759    1413.29971      -2.7136      -0.8759
   1413.28445      -2.9976      -0.5939    1413.28445      -2.9976      -0.5939
   1413.26919      -3.1401      -0.7522    1413.26919      -3.1401      -0.7522
   1413.25393      -3.0257      -0.7356    1413.25393      -3.0257      -0.7356
   1413.23867      -3.2256      -1.1575    1413.23867      -3.2256      -1.1575
   1413.22341      -2.8804      -0.6979    1413.22341      -2.8804      -0.6979
   1413.20815      -2.9202      -0.8258    1413.20815      -2.9202      -0.8258
   1413.19290      -2.6773      -0.5712    1413.19290      -2.6773      -0.5712
   1413.17764      -2.9787      -1.4130    1413.17764      -2.9787      -1.4130
   1413.16238      -3.2471      -1.0609    1413.16238      -3.2471      -1.0609
   1413.14712      -2.7096      -0.5172    1413.14712      -2.7096      -0.5172
   1413.13186      -3.0492      -1.3534    1413.13186      -3.0492      -1.3534
   1413.11660      -2.9196      -1.0510    1413.11660      -2.9196      -1.0510
   1413.10134      -2.7265      -0.9238    1413.10134      -2.7265      -0.9238
   1413.08608      -3.0004      -0.8068    1413.08608      -3.0004      -0.8068
   1413.07083      -2.7009      -0.5887    1413.07083      -2.7009      -0.5887
   1413.05557      -3.2990      -1.1533    1413.05557      -3.2990      -1.1533
   1413.04031      -3.2623      -1.2308    1413.04031      -3.2623      -1.2308
   1413.02505      -2.7820      -0.8374    1413.02505      -2.7820      -0.8374
   1413.00979      -3.5697      -0.9842    1413.00979      -3.5697      -0.9842
   1412.99453      -2.5216      -0.9930    1412.99453      -2.5216      -0.9930
   1412.97927      -2.8778      -1.2589    1412.97927      -2.8778      -1.2589
   1412.96401      -2.7725      -0.8831    1412.96401      -2.7725      -0.8831
   1412.94875      -2.9516      -1.1324    1412.94875      -2.9516      -1.1324
   1412.93350      -2.9361      -1.4048    1412.93350      -2.9361      -1.4048
   1412.91824      -3.2102      -1.3662    1412.91824      -3.2102      -1.3662
   1412.90298      -2.6917      -1.0214    1412.90298      -2.6917      -1.0214
   1412.88772      -2.7238      -1.5219    1412.88772      -2.7238      -1.5219
   1412.87246      -2.8624      -1.1286    1412.87246      -2.8624      -1.1286
   1412.85720      -3.5312      -1.6465    1412.85720      -3.5312      -1.6465
   1412.84194      -2.7849      -1.4824    1412.84194      -2.7849      -1.4824
   1412.82668      -2.6506      -1.2188    1412.82668      -2.6506      -1.2188
   1412.81143      -3.5708      -1.0326    1412.81143      -3.5708      -1.0326
   1412.79617      -3.0578      -1.4194    1412.79617      -3.0578      -1.4194
   1412.78091      -3.1160      -1.0162    1412.78091      -3.1160      -1.0162
   1412.76565      -3.0104      -1.5434    1412.76565      -3.0104      -1.5434
   1412.75039      -3.0157      -1.8140    1412.75039      -3.0157      -1.8140
   1412.73513      -3.3402      -0.9952    1412.73513      -3.3402      -0.9952
   1412.71987      -3.3224      -1.4441    1412.71987      -3.3224      -1.4441
   1412.70461      -3.0514      -1.6562    1412.70461      -3.0514      -1.6562
   1412.68936      -2.9807      -2.0341    1412.68936      -2.9807      -2.0341
   1412.67410      -3.0071      -1.2534    1412.67410      -3.0071      -1.2534
   1412.65884      -3.6302      -1.0562    1412.65884      -3.6302      -1.0562
   1412.64358      -2.9995      -0.8771    1412.64358      -2.9995      -0.8771
   1412.62832      -2.5505      -1.3735    1412.62832      -2.5505      -1.3735
   1412.61306      -3.2225      -1.3664    1412.61306      -3.2225      -1.3664
   1412.59780      -3.3512      -1.3777    1412.59780      -3.3512      -1.3777
   1412.58254      -2.7926      -0.9960    1412.58254      -2.7926      -0.9960
   1412.56729      -2.8183      -0.9513    1412.56729      -2.8183      -0.9513
   1412.55203      -2.8868      -1.8823    1412.55203      -2.8868      -1.8823
   1412.53677      -2.6151      -1.9802    1412.53677      -2.6151      -1.9802
   1412.52151      -3.2854      -1.1758    1412.52151      -3.2854      -1.1758
   1412.50625      -3.4480      -1.9641    1412.50625      -3.4480      -1.9641
   1412.49099      -3.1272      -1.5518    1412.49099      -3.1272      -1.5518
   1412.47573      -3.1416      -1.6982    1412.47573      -3.1416      -1.6982
   1412.46047      -3.0417      -1.2972    1412.46047      -3.0417      -1.2972
   1412.44521      -2.6605      -1.3418    1412.44521      -2.6605      -1.3418
   1412.42996      -3.1095      -1.5978    1412.42996      -3.1095      -1.5978
   1412.41470      -2.6261      -1.5074    1412.41470      -2.6261      -1.5074
   1412.39944      -2.9538      -1.2614    1412.39944      -2.9538      -1.2614
   1412.38418      -3.3327      -1.7425    1412.38418      -3.3327      -1.7425
   1412.36892      -3.2445      -1.5000    1412.36892      -3.2445      -1.5000
   1412.35366      -3.5655      -1.5877    1412.35366      -3.5655      -1.5877
   1412.33840      -3.0087      -1.8605    1412.33840      -3.0087      -1.8605
   1412.32314      -3.2176      -1.8920    1412.32314      -3.2176      -1.8920
   1412.30789      -2.9906      -1.8180    1412.30789      -2.9906      -1.8180
   1412.29263      -3.3445      -1.7144    1412.29263      -3.3445      -1.7144
   1412.27737      -3.7476      -1.5449    1412.27737      -3.7476      -1.5449
   1412.26211      -0.7607       1.1065    1412.26211      -0.7607       1.1065
   1412.24685      -3.0912      -2.2559    1412.24685      -3.0912      -2.2559
   1412.23159      -3.0151      -2.5039    1412.23159      -3.0151      -2.5039
   1412.21633      -2.9821      -2.3544    1412.21633      -2.9821      -2.3544
   1412.20107      -3.0708      -1.8374    1412.20107      -3.0708      -1.8374
   1412.18582      -3.2090      -1.7347    1412.18582      -3.2090      -1.7347
   1412.17056      -3.0769      -1.5450    1412.17056      -3.0769      -1.5450
   1412.15530      -3.7553      -1.7564    1412.15530      -3.7553      -1.7564
   1412.14004      -2.8950      -1.1326    1412.14004      -2.8950      -1.1326
   1412.12478      -3.3075      -1.7512    1412.12478      -3.3075      -1.7512
   1412.10952      -3.6226      -1.5191    1412.10952      -3.6226      -1.5191
   1412.09426      -3.4399      -2.0066    1412.09426      -3.4399      -2.0066
   1412.07900      -3.2687      -1.7643    1412.07900      -3.2687      -1.7643
   1412.06375      -3.3019      -1.6184    1412.06375      -3.3019      -1.6184
   1412.04849      -3.1577      -2.2073    1412.04849      -3.1577      -2.2073
   1412.03323      -3.1249      -1.8978    1412.03323      -3.1249      -1.8978
   1412.01797      -3.1142      -1.8118    1412.01797      -3.1142      -1.8118
   1412.00271      -3.4767      -1.6665    1412.00271      -3.4767      -1.6665
   1411.98745      -3.0910      -1.7453    1411.98745      -3.0910      -1.7453
   1411.97219      -3.6246      -1.6497    1411.97219      -3.6246      -1.6497
   1411.95693      -3.1334      -1.6454    1411.95693      -3.1334      -1.6454
   1411.94167      -3.3102      -1.7386    1411.94167      -3.3102      -1.7386
   1411.92642      -3.4329      -1.7189    1411.92642      -3.4329      -1.7189
   1411.91116      -3.3675      -1.7839    1411.91116      -3.3675      -1.7839
   1411.89590      -3.3002      -1.7684    1411.89590      -3.3002      -1.7684
   1411.88064      -3.5323      -1.9439    1411.88064      -3.5323      -1.9439
   1411.86538      -3.4231      -1.4721    1411.86538      -3.4231      -1.4721
   1411.85012      -2.9354      -1.4226    1411.85012      -2.9354      -1.4226
   1411.83486      -3.0973      -1.7465    1411.83486      -3.0973      -1.7465
   1411.81960      -3.5543      -2.2992    1411.81960      -3.5543      -2.2992
   1411.80435      -3.3571      -1.4621    1411.80435      -3.3571      -1.4621
   1411.78909      -3.1800      -2.1384    1411.78909      -3.1800      -2.1384
   1411.77383      -2.9260      -2.0952    1411.77383      -2.9260      -2.0952
   1411.75857      -3.7096      -1.5471    1411.75857      -3.7096      -1.5471
   1411.74331      -3.6309      -1.8657    1411.74331      -3.6309      -1.8657
   1411.72805      -3.5882      -1.8729    1411.72805      -3.5882      -1.8729
   1411.71279      -3.4264      -1.8876    1411.71279      -3.4264      -1.8876
   1411.69753      -2.8030      -1.9215    1411.69753      -2.8030      -1.9215
   1411.68228      -3.6676      -1.2846    1411.68228      -3.6676      -1.2846
   1411.66702      -3.3757      -1.9048    1411.66702      -3.3757      -1.9048
   1411.65176      -3.7820      -1.2860    1411.65176      -3.7820      -1.2860
   1411.63650      -3.1175      -2.2132    1411.63650      -3.1175      -2.2132
   1411.62124      -3.1104      -1.7134    1411.62124      -3.1104      -1.7134
   1411.60598      -3.3088      -1.3582    1411.60598      -3.3088      -1.3582
   1411.59072      -3.4828      -1.8701    1411.59072      -3.4828      -1.8701
   1411.57546      -2.7808      -1.7469    1411.57546      -2.7808      -1.7469
   1411.56021      -3.3672      -1.6694    1411.56021      -3.3672      -1.6694
   1411.54495      -3.1259      -1.5280    1411.54495      -3.1259      -1.5280
   1411.52969      -3.0595      -2.4587    1411.52969      -3.0595      -2.4587
   1411.51443      -4.1715      -2.1534    1411.51443      -4.1715      -2.1534
   1411.49917      -3.1643      -2.0433    1411.49917      -3.1643      -2.0433
   1411.48391      -3.5059      -1.9413    1411.48391      -3.5059      -1.9413
   1411.46865      -4.2080      -2.4236    1411.46865      -4.2080      -2.4236
   1411.45339      -2.8855      -1.8391    1411.45339      -2.8855      -1.8391
   1411.43813      -3.2862      -1.7837    1411.43813      -3.2862      -1.7837
   1411.42288      -3.3460      -2.1561    1411.42288      -3.3460      -2.1561
   1411.40762      -3.1479      -1.5152    1411.40762      -3.1479      -1.5152
   1411.39236      -3.3981      -1.8858    1411.39236      -3.3981      -1.8858
   1411.37710      -3.6336      -2.6091    1411.37710      -3.6336      -2.6091
   1411.36184      -4.3178      -2.3876    1411.36184      -4.3178      -2.3876
   1411.34658      -3.5810      -2.3385    1411.34658      -3.5810      -2.3385
   1411.33132      -3.5743      -2.2056    1411.33132      -3.5743      -2.2056
   1411.31606      -3.4527      -2.0935    1411.31606      -3.4527      -2.0935
   1411.30081      -3.6524      -2.2776    1411.30081      -3.6524      -2.2776
   1411.28555      -3.5868      -2.2004    1411.28555      -3.5868      -2.2004
   1411.27029      -3.0684      -1.9910    1411.27029      -3.0684      -1.9910
   1411.25503      -3.4095      -2.2523    1411.25503      -3.4095      -2.2523
   1411.23977      -3.9085      -2.0121    1411.23977      -3.9085      -2.0121
   1411.22451      -3.4988      -2.0303    1411.22451      -3.4988      -2.0303
   1411.20925      -3.3117      -2.1032    1411.20925      -3.3117      -2.1032
   1411.19399      -3.5540      -1.6035    1411.19399      -3.5540      -1.6035
   1411.17874      -3.6036      -2.2039    1411.17874      -3.6036      -2.2039
   1411.16348      -3.1819      -1.8675    1411.16348      -3.1819      -1.8675
   1411.14822      -3.4148      -2.3474    1411.14822      -3.4148      -2.3474
   1411.13296      -2.9699      -2.2677    1411.13296      -2.9699      -2.2677
   1411.11770      -3.6857      -1.8249    1411.11770      -3.6857      -1.8249
   1411.10244      -3.4243      -1.9693    1411.10244      -3.4243      -1.9693
   1411.08718      -4.2722      -1.8806    1411.08718      -4.2722      -1.8806
   1411.07192      -3.4508      -1.8629    1411.07192      -3.4508      -1.8629
   1411.05667      -3.9132      -1.6208    1411.05667      -3.9132      -1.6208
   1411.04141      -3.7905      -2.0544    1411.04141      -3.7905      -2.0544
   1411.02615      -4.1421      -2.4271    1411.02615      -4.1421      -2.4271
   1411.01089      -3.4351      -2.0505    1411.01089      -3.4351      -2.0505
   1410.99563      -3.4174      -2.2922    1410.99563      -3.4174      -2.2922
   1410.98037      -3.7370      -2.5445    1410.98037      -3.7370      -2.5445
   1410.96511      -3.3622      -1.9605    1410.96511      -3.3622      -1.9605
   1410.94985      -3.8993      -2.4309    1410.94985      -3.8993      -2.4309
   1410.93459      -3.5121      -2.2852    1410.93459      -3.5121      -2.2852
   1410.91934      -3.2631      -1.9951    1410.91934      -3.2631      -1.9951
   1410.90408      -2.9137      -1.9164    1410.90408      -2.9137      -1.9164
   1410.88882      -3.4417      -1.7862    1410.88882      -3.4417      -1.7862
   1410.87356      -3.3561      -2.2863    1410.87356      -3.3561      -2.2863
   1410.85830      -2.9841      -2.2669    1410.85830      -2.9841      -2.2669
   1410.84304      -3.3909      -2.3366    1410.84304      -3.3909      -2.3366
   1410.82778      -3.8322      -2.2934    1410.82778      -3.8322      -2.2934
   1410.81252      -3.9734      -2.4187    1410.81252      -3.9734      -2.4187
   1410.79727      -3.2945      -2.3690    1410.79727      -3.2945      -2.3690
   1410.78201      -3.9787      -2.7281    1410.78201      -3.9787      -2.7281
   1410.76675      -3.3882      -2.6985    1410.76675      -3.3882      -2.6985
   1410.75149      -3.7324      -2.3956    1410.75149      -3.7324      -2.3956
   1410.73623      -3.5508      -2.4196    1410.73623      -3.5508      -2.4196
   1410.72097      -3.9314      -2.0237    1410.72097      -3.9314      -2.0237
   1410.70571      -3.7093      -2.2170    1410.70571      -3.7093      -2.2170
   1410.69045      -3.8369      -2.4734    1410.69045      -3.8369      -2.4734
   1410.67520      -3.6499      -2.2999    1410.67520      -3.6499      -2.2999
   1410.65994      -3.2432      -2.5290    1410.65994      -3.2432      -2.5290
   1410.64468      -3.6661      -2.0183    1410.64468      -3.6661      -2.0183
   1410.62942      -3.9198      -2.0765    1410.62942      -3.9198      -2.0765
   1410.61416      -3.7198      -2.5810    1410.61416      -3.7198      -2.5810
   1410.59890      -4.5024      -2.3305    1410.59890      -4.5024      -2.3305
   1410.58364      -3.5979      -2.3724    1410.58364      -3.5979      -2.3724
   1410.56838      -3.0980      -2.3681    1410.56838      -3.0980      -2.3681
   1410.55312      -3.5711      -1.8888    1410.55312      -3.5711      -1.8888
   1410.53787      -3.5757      -2.0609    1410.53787      -3.5757      -2.0609
   1410.52261      -3.9954      -2.4915    1410.52261      -3.9954      -2.4915
   1410.50735      -3.4207      -2.3919    1410.50735      -3.4207      -2.3919
   1410.49209      -3.1858      -2.3201    1410.49209      -3.1858      -2.3201
   1410.47683      -2.8097      -2.1842    1410.47683      -2.8097      -2.1842
   1410.46157      -3.3104      -2.7853    1410.46157      -3.3104      -2.7853
   1410.44631      -3.9388      -2.1723    1410.44631      -3.9388      -2.1723
   1410.43105      -3.7523      -1.9186    1410.43105      -3.7523      -1.9186
   1410.41580      -3.3719      -1.8646    1410.41580      -3.3719      -1.8646
   1410.40054      -3.6935      -1.9637    1410.40054      -3.6935      -1.9637
   1410.38528      -3.5858      -1.8836    1410.38528      -3.5858      -1.8836
   1410.37002      -3.4949      -2.1917    1410.37002      -3.4949      -2.1917
   1410.35476      -3.4612      -2.2368    1410.35476      -3.4612      -2.2368
   1410.33950      -3.5871      -1.8719    1410.33950      -3.5871      -1.8719
   1410.32424      -3.2643      -2.1146    1410.32424      -3.2643      -2.1146
   1410.30898      -3.5230      -2.0553    1410.30898      -3.5230      -2.0553
   1410.29373      -4.0512      -1.8770    1410.29373      -4.0512      -1.8770
   1410.27847      -3.6593      -2.3345    1410.27847      -3.6593      -2.3345
   1410.26321      -3.9662      -2.2866    1410.26321      -3.9662      -2.2866
   1410.24795      -3.9435      -1.8439    1410.24795      -3.9435      -1.8439
   1410.23269      -4.0001      -2.2727    1410.23269      -4.0001      -2.2727
   1410.21743      -4.6862      -2.3974    1410.21743      -4.6862      -2.3974
   1410.20217      -3.9478      -2.4719    1410.20217      -3.9478      -2.4719
   1410.18691      -3.5227      -2.1832    1410.18691      -3.5227      -2.1832
   1410.17166      -3.1547      -2.0140    1410.17166      -3.1547      -2.0140
   1410.15640      -4.0455      -1.9667    1410.15640      -4.0455      -1.9667
   1410.14114      -3.1084      -1.9645    1410.14114      -3.1084      -1.9645
   1410.12588      -3.6708      -2.4615    1410.12588      -3.6708      -2.4615
   1410.11062      -3.7823      -2.6463    1410.11062      -3.7823      -2.6463
   1410.09536      -4.2604      -2.2413    1410.09536      -4.2604      -2.2413
   1410.08010      -3.7508      -1.8464    1410.08010      -3.7508      -1.8464
   1410.06484      -3.8262      -1.8518    1410.06484      -3.8262      -1.8518
   1410.04958      -3.5997      -1.8927    1410.04958      -3.5997      -1.8927
   1410.03433      -4.0145      -2.2882    1410.03433      -4.0145      -2.2882
   1410.01907      -3.7813      -2.1100    1410.01907      -3.7813      -2.1100
   1410.00381      -4.0333      -1.9258    1410.00381      -4.0333      -1.9258
   1409.98855      -3.8228      -1.8288    1409.98855      -3.8228      -1.8288
   1409.97329      -4.5100      -2.0584    1409.97329      -4.5100      -2.0584
   1409.95803      -3.9815      -2.4319    1409.95803      -3.9815      -2.4319
   1409.94277      -4.5062      -1.7198    1409.94277      -4.5062      -1.7198
   1409.92751      -3.8992      -2.3685    1409.92751      -3.8992      -2.3685
   1409.91226      -3.9172      -1.9010    1409.91226      -3.9172      -1.9010
   1409.89700      -3.2826      -1.8781    1409.89700      -3.2826      -1.8781
   1409.88174      -3.8501      -2.0706    1409.88174      -3.8501      -2.0706
   1409.86648      -4.5032      -2.1928    1409.86648      -4.5032      -2.1928
   1409.85122      -4.0130      -2.4500    1409.85122      -4.0130      -2.4500
   1409.83596      -4.0981      -2.0348    1409.83596      -4.0981      -2.0348
   1409.82070      -3.9490      -2.0987    1409.82070      -3.9490      -2.0987
   1409.80544      -3.5538      -1.9331    1409.80544      -3.5538      -1.9331
   1409.79019      -3.5290      -1.5670    1409.79019      -3.5290      -1.5670
   1409.77493      -4.0046      -1.9182    1409.77493      -4.0046      -1.9182
   1409.75967      -3.8956      -1.8731    1409.75967      -3.8956      -1.8731
   1409.74441      -4.0920      -2.1416    1409.74441      -4.0920      -2.1416
   1409.72915      -4.1085      -1.9734    1409.72915      -4.1085      -1.9734
   1409.71389      -4.1302      -2.1589    1409.71389      -4.1302      -2.1589
   1409.69863      -3.7905      -1.9070    1409.69863      -3.7905      -1.9070
   1409.68337      -4.8688      -2.0031    1409.68337      -4.8688      -2.0031
   1409.66812      -3.7235      -2.0939    1409.66812      -3.7235      -2.0939
   1409.65286      -4.1491      -2.0356    1409.65286      -4.1491      -2.0356
   1409.63760      -3.6897      -2.2804    1409.63760      -3.6897      -2.2804
   1409.62234      -4.3988      -1.5336    1409.62234      -4.3988      -1.5336
   1409.60708      -3.9294      -2.1518    1409.60708      -3.9294      -2.1518
   1409.59182      -3.4484      -2.2267    1409.59182      -3.4484      -2.2267
   1409.57656      -3.8157      -1.7879    1409.57656      -3.8157      -1.7879
   1409.56130      -4.0957      -1.6406    1409.56130      -4.0957      -1.6406
   1409.54604      -3.5153      -1.9145    1409.54604      -3.5153      -1.9145
   1409.53079      -3.4868      -1.8719    1409.53079      -3.4868      -1.8719
   1409.51553      -3.9145      -1.9840    1409.51553      -3.9145      -1.9840
   1409.50027      -4.0174      -1.9844    1409.50027      -4.0174      -1.9844
   1409.48501      -3.8193      -1.7160    1409.48501      -3.8193      -1.7160
   1409.46975      -3.7433      -1.6620    1409.46975      -3.7433      -1.6620
   1409.45449      -3.7512      -1.6963    1409.45449      -3.7512      -1.6963
   1409.43923      -4.0377      -1.6841    1409.43923      -4.0377      -1.6841
   1409.42397      -3.5678      -2.0649    1409.42397      -3.5678      -2.0649
   1409.40872      -3.3334      -1.7288    1409.40872      -3.3334      -1.7288
   1409.39346      -4.1110      -1.7561    1409.39346      -4.1110      -1.7561
   1409.37820      -3.1616      -2.0775    1409.37820      -3.1616      -2.0775
   1409.36294      -3.9534      -1.6587    1409.36294      -3.9534      -1.6587
   1409.34768      -3.5778      -1.9352    1409.34768      -3.5778      -1.9352
   1409.33242      -3.7423      -2.2151    1409.33242      -3.7423      -2.2151
   1409.31716      -3.5453      -2.1230    1409.31716      -3.5453      -2.1230
   1409.30190      -4.4713      -2.2601    1409.30190      -4.4713      -2.2601
   1409.28665      -4.2655      -1.7005    1409.28665      -4.2655      -1.7005
   1409.27139      -3.9524      -1.6841    1409.27139      -3.9524      -1.6841
   1409.25613      -4.2102      -1.8232    1409.25613      -4.2102      -1.8232
   1409.24087      -4.1189      -2.2963    1409.24087      -4.1189      -2.2963
   1409.22561      -4.1012      -1.6268    1409.22561      -4.1012      -1.6268
   1409.21035      -3.5288      -1.7871    1409.21035      -3.5288      -1.7871
   1409.19509      -3.8326      -1.4206    1409.19509      -3.8326      -1.4206
   1409.17983      -3.7638      -1.6528    1409.17983      -3.7638      -1.6528
   1409.16458      -4.5214      -1.8433    1409.16458      -4.5214      -1.8433
   1409.14932      -4.4338      -1.9257    1409.14932      -4.4338      -1.9257
   1409.13406      -4.2759      -1.9908    1409.13406      -4.2759      -1.9908
   1409.11880      -4.6745      -1.9497    1409.11880      -4.6745      -1.9497
   1409.10354      -3.6991      -1.7752    1409.10354      -3.6991      -1.7752
   1409.08828      -4.1993      -2.2131    1409.08828      -4.1993      -2.2131
   1409.07302      -4.0645      -1.9592    1409.07302      -4.0645      -1.9592
   1409.05776      -4.2332      -1.8786    1409.05776      -4.2332      -1.8786
   1409.04250      -4.4809      -1.6828    1409.04250      -4.4809      -1.6828
   1409.02725      -3.2008      -1.5556    1409.02725      -3.2008      -1.5556
   1409.01199      -4.3788      -1.5740    1409.01199      -4.3788      -1.5740
   1408.99673      -4.5864      -1.6875    1408.99673      -4.5864      -1.6875
   1408.98147      -3.6033      -1.6542    1408.98147      -3.6033      -1.6542
   1408.96621      -4.1286      -1.8933    1408.96621      -4.1286      -1.8933
   1408.95095      -4.1152      -1.3031    1408.95095      -4.1152      -1.3031
   1408.93569      -4.4501      -2.0920    1408.93569      -4.4501      -2.0920
   1408.92043      -3.7811      -1.7438    1408.92043      -3.7811      -1.7438
   1408.90518      -3.8791      -2.0022    1408.90518      -3.8791      -2.0022
   1408.88992      -3.8325      -2.0063    1408.88992      -3.8325      -2.0063
   1408.87466      -4.3210      -1.7576    1408.87466      -4.3210      -1.7576
   1408.85940      -3.8779      -1.5610    1408.85940      -3.8779      -1.5610
   1408.84414      -3.8293      -1.8310    1408.84414      -3.8293      -1.8310
   1408.82888      -3.8049      -1.7649    1408.82888      -3.8049      -1.7649
   1408.81362      -4.2565      -1.4184    1408.81362      -4.2565      -1.4184
   1408.79836      -4.3151      -1.9638    1408.79836      -4.3151      -1.9638
   1408.78311      -3.7716      -2.1732    1408.78311      -3.7716      -2.1732
   1408.76785      -3.3991      -1.3446    1408.76785      -3.3991      -1.3446
   1408.75259      -4.2496      -1.8446    1408.75259      -4.2496      -1.8446
   1408.73733      -4.1119      -2.0621    1408.73733      -4.1119      -2.0621
   1408.72207      -4.7009      -1.8670    1408.72207      -4.7009      -1.8670
   1408.70681      -4.6669      -1.8717    1408.70681      -4.6669      -1.8717
   1408.69155      -4.2122      -1.9014    1408.69155      -4.2122      -1.9014
   1408.67629      -3.9714      -1.7984    1408.67629      -3.9714      -1.7984
   1408.66104      -4.4483      -1.9646    1408.66104      -4.4483      -1.9646
   1408.64578      -4.7431      -1.8782    1408.64578      -4.7431      -1.8782
   1408.63052      -4.2665      -2.2251    1408.63052      -4.2665      -2.2251
   1408.61526      -4.3166      -1.1320    1408.61526      -4.3166      -1.1320
   1408.60000      -4.2441      -1.7156    1408.60000      -4.2441      -1.7156
   1408.58474      -4.0580      -1.9998    1408.58474      -4.0580      -1.9998
   1408.56948      -4.0084      -1.8989    1408.56948      -4.0084      -1.8989
   1408.55422      -4.4091      -1.9574    1408.55422      -4.4091      -1.9574
   1408.53896      -4.4430      -1.9429    1408.53896      -4.4430      -1.9429
   1408.52371      -4.2226      -1.6625    1408.52371      -4.2226      -1.6625
   1408.50845      -4.6148      -1.7605    1408.50845      -4.6148      -1.7605
   1408.49319      -4.1764      -2.1745    1408.49319      -4.1764      -2.1745
   1408.47793      -3.9612      -2.1165    1408.47793      -3.9612      -2.1165
   1408.46267      -4.3919      -2.2318    1408.46267      -4.3919      -2.2318
   1408.44741      -4.1041      -1.6772    1408.44741      -4.1041      -1.6772
   1408.43215      -4.0378      -1.8244    1408.43215      -4.0378      -1.8244
   1408.41689      -4.2596      -2.0501    1408.41689      -4.2596      -2.0501
   1408.40164      -4.4342      -2.1330    1408.40164      -4.4342      -2.1330
   1408.38638      -4.6196      -1.7501    1408.38638      -4.6196      -1.7501
   1408.37112      -4.0946      -1.5511    1408.37112      -4.0946      -1.5511
   1408.35586      -4.3911      -1.9420    1408.35586      -4.3911      -1.9420
   1408.34060      -4.3775      -1.9765    1408.34060      -4.3775      -1.9765
   1408.32534      -4.2619      -1.6944    1408.32534      -4.2619      -1.6944
   1408.31008      -4.2997      -1.6496    1408.31008      -4.2997      -1.6496
   1408.29482      -3.9890      -1.3018    1408.29482      -3.9890      -1.3018
   1408.27957      -4.3692      -1.8999    1408.27957      -4.3692      -1.8999
   1408.26431      -4.3274      -2.2082    1408.26431      -4.3274      -2.2082
   1408.24905      -4.0733      -1.2861    1408.24905      -4.0733      -1.2861
   1408.23379      -4.4818      -1.3680    1408.23379      -4.4818      -1.3680
   1408.21853      -4.2612      -1.6697    1408.21853      -4.2612      -1.6697
   1408.20327      -3.9161      -1.5481    1408.20327      -3.9161      -1.5481
   1408.18801      -4.3315      -2.3300    1408.18801      -4.3315      -2.3300
   1408.17275      -4.7232      -2.4281    1408.17275      -4.7232      -2.4281
   1408.15750      -4.7586      -1.7357    1408.15750      -4.7586      -1.7357
   1408.14224      -3.4873      -1.7311    1408.14224      -3.4873      -1.7311
   1408.12698      -3.9638      -1.8615    1408.12698      -3.9638      -1.8615
   1408.11172      -3.9771      -1.9226    1408.11172      -3.9771      -1.9226
   1408.09646      -4.1004      -2.1632    1408.09646      -4.1004      -2.1632
   1408.08120      -3.8707      -2.1232    1408.08120      -3.8707      -2.1232
   1408.06594      -4.0063      -1.9168    1408.06594      -4.0063      -1.9168
   1408.05068      -4.4348      -1.8914    1408.05068      -4.4348      -1.8914
   1408.03542      -4.5417      -1.8417    1408.03542      -4.5417      -1.8417
   1408.02017      -4.3147      -1.8431    1408.02017      -4.3147      -1.8431
   1408.00491      -4.5817      -1.6262    1408.00491      -4.5817      -1.6262
   1407.98965      -4.5509      -2.3103    1407.98965      -4.5509      -2.3103
   1407.97439      -4.1981      -1.8635    1407.97439      -4.1981      -1.8635
   1407.95913      -4.4362      -2.1533    1407.95913      -4.4362      -2.1533
   1407.94387      -4.6798      -1.9958    1407.94387      -4.6798      -1.9958
   1407.92861      -4.3362      -1.9631    1407.92861      -4.3362      -1.9631
   1407.91335      -4.7228      -1.5824    1407.91335      -4.7228      -1.5824
   1407.89810      -4.4115      -1.7564    1407.89810      -4.4115      -1.7564
   1407.88284      -4.2265      -2.2218    1407.88284      -4.2265      -2.2218
   1407.86758      -3.9853      -1.8432    1407.86758      -3.9853      -1.8432
   1407.85232      -4.1070      -1.8861    1407.85232      -4.1070      -1.8861
   1407.83706      -4.3060      -1.7673    1407.83706      -4.3060      -1.7673
   1407.82180      -4.4808      -1.8878    1407.82180      -4.4808      -1.8878
   1407.80654      -4.7780      -2.2427    1407.80654      -4.7780      -2.2427
   1407.79128      -4.6352      -1.6846    1407.79128      -4.6352      -1.6846
   1407.77603      -4.4791      -1.7740    1407.77603      -4.4791      -1.7740
   1407.76077      -4.4973      -1.6228    1407.76077      -4.4973      -1.6228
   1407.74551      -4.1195      -1.9689    1407.74551      -4.1195      -1.9689
   1407.73025      -4.1740      -2.0698    1407.73025      -4.1740      -2.0698
   1407.71499      -4.2322      -1.7830    1407.71499      -4.2322      -1.7830
   1407.69973      -4.1931      -2.0798    1407.69973      -4.1931      -2.0798
   1407.68447      -4.9122      -1.7179    1407.68447      -4.9122      -1.7179
   1407.66921      -4.2486      -1.3463    1407.66921      -4.2486      -1.3463
   1407.65396      -4.5913      -1.7423    1407.65396      -4.5913      -1.7423
   1407.63870      -4.2808      -1.5638    1407.63870      -4.2808      -1.5638
   1407.62344      -4.1561      -1.6578    1407.62344      -4.1561      -1.6578
   1407.60818      -4.2792      -1.7262    1407.60818      -4.2792      -1.7262
   1407.59292      -4.2800      -1.8844    1407.59292      -4.2800      -1.8844
   1407.57766      -4.6952      -1.8778    1407.57766      -4.6952      -1.8778
   1407.56240      -4.3620      -1.7518    1407.56240      -4.3620      -1.7518
   1407.54714      -4.0456      -2.0202    1407.54714      -4.0456      -2.0202
   1407.53188      -4.4460      -1.7062    1407.53188      -4.4460      -1.7062
   1407.51663      -4.6480      -1.5505    1407.51663      -4.6480      -1.5505
   1407.50137      -4.7285      -1.6896    1407.50137      -4.7285      -1.6896
   1407.48611      -4.4670      -1.3317    1407.48611      -4.4670      -1.3317
   1407.47085      -4.3539      -1.2340    1407.47085      -4.3539      -1.2340
   1407.45559      -4.6339      -1.8613    1407.45559      -4.6339      -1.8613
   1407.44033      -4.4290      -1.7906    1407.44033      -4.4290      -1.7906
   1407.42507      -4.2809      -1.8241    1407.42507      -4.2809      -1.8241
   1407.40981      -4.2791      -1.7516    1407.40981      -4.2791      -1.7516
   1407.39456      -4.4943      -1.5320    1407.39456      -4.4943      -1.5320
   1407.37930      -4.2568      -1.5669    1407.37930      -4.2568      -1.5669
   1407.36404      -4.3491      -1.4958    1407.36404      -4.3491      -1.4958
   1407.34878      -4.5074      -1.7510    1407.34878      -4.5074      -1.7510
   1407.33352      -4.2800      -1.3571    1407.33352      -4.2800      -1.3571
   1407.31826      -4.8317      -1.4656    1407.31826      -4.8317      -1.4656
   1407.30300      -4.5892      -1.4150    1407.30300      -4.5892      -1.4150
   1407.28774      -4.8675      -1.4384    1407.28774      -4.8675      -1.4384
   1407.27249      -4.5745      -1.3354    1407.27249      -4.5745      -1.3354
   1407.25723      -4.5068      -1.8595    1407.25723      -4.5068      -1.8595
   1407.24197      -4.2522      -1.7518    1407.24197      -4.2522      -1.7518
   1407.22671      -4.5343      -1.4822    1407.22671      -4.5343      -1.4822
   1407.21145      -4.2171      -2.0767    1407.21145      -4.2171      -2.0767
   1407.19619      -4.8867      -1.6312    1407.19619      -4.8867      -1.6312
   1407.18093      -4.1099      -1.7406    1407.18093      -4.1099      -1.7406
   1407.16567      -4.9921      -1.8397    1407.16567      -4.9921      -1.8397
   1407.15042      -4.6239      -1.3491    1407.15042      -4.6239      -1.3491
   1407.13516      -4.4253      -1.6792    1407.13516      -4.4253      -1.6792
   1407.11990      -4.3782      -1.7485    1407.11990      -4.3782      -1.7485
   1407.10464      -4.6203      -1.5243    1407.10464      -4.6203      -1.5243
   1407.08938      -4.7838      -1.4703    1407.08938      -4.7838      -1.4703
   1407.07412      -4.6030      -1.4124    1407.07412      -4.6030      -1.4124
   1407.05886      -4.9849      -1.6944    1407.05886      -4.9849      -1.6944
   1407.04360      -4.9079      -1.6321    1407.04360      -4.9079      -1.6321
   1407.02834      -4.6896      -1.4804    1407.02834      -4.6896      -1.4804
   1407.01309      -4.6248      -1.7899    1407.01309      -4.6248      -1.7899
   1406.99783      -4.9961      -1.9727    1406.99783      -4.9961      -1.9727
   1406.98257      -4.1390      -1.0930    1406.98257      -4.1390      -1.0930
   1406.96731      -4.8795      -1.7330    1406.96731      -4.8795      -1.7330
   1406.95205      -4.7696      -1.5348    1406.95205      -4.7696      -1.5348
   1406.93679      -4.8420      -1.6896    1406.93679      -4.8420      -1.6896
   1406.92153      -4.7150      -1.4459    1406.92153      -4.7150      -1.4459
   1406.90627      -4.6561      -1.5508    1406.90627      -4.6561      -1.5508
   1406.89102      -4.6046      -1.6381    1406.89102      -4.6046      -1.6381
   1406.87576      -4.1176      -1.8804    1406.87576      -4.1176      -1.8804
   1406.86050      -4.8032      -1.7924    1406.86050      -4.8032      -1.7924
   1406.84524      -5.0639      -1.3779    1406.84524      -5.0639      -1.3779
   1406.82998      -4.3822      -1.4485    1406.82998      -4.3822      -1.4485
   1406.81472      -4.5750      -1.6655    1406.81472      -4.5750      -1.6655
   1406.79946      -5.0064      -1.4529    1406.79946      -5.0064      -1.4529
   1406.78420      -4.5880      -1.7144    1406.78420      -4.5880      -1.7144
   1406.76895      -5.2711      -1.5512    1406.76895      -5.2711      -1.5512
   1406.75369      -4.5877      -2.0931    1406.75369      -4.5877      -2.0931
   1406.73843      -4.5196      -1.6001    1406.73843      -4.5196      -1.6001
   1406.72317      -4.6808      -1.7518    1406.72317      -4.6808      -1.7518
   1406.70791      -5.0114      -1.7391    1406.70791      -5.0114      -1.7391
   1406.69265      -5.0142      -1.7103    1406.69265      -5.0142      -1.7103
   1406.67739      -4.2278      -1.4811    1406.67739      -4.2278      -1.4811
   1406.66213      -4.7334      -1.5740    1406.66213      -4.7334      -1.5740
   1406.64687      -4.6560      -1.7055    1406.64687      -4.6560      -1.7055
   1406.63162      -5.3422      -1.5924    1406.63162      -5.3422      -1.5924
   1406.61636      -4.6833      -1.4745    1406.61636      -4.6833      -1.4745
   1406.60110      -4.7496      -2.0209    1406.60110      -4.7496      -2.0209
   1406.58584      -4.5391      -1.5432    1406.58584      -4.5391      -1.5432
   1406.57058      -4.7133      -1.3366    1406.57058      -4.7133      -1.3366
   1406.55532      -4.7251      -1.0802    1406.55532      -4.7251      -1.0802
   1406.54006      -4.6383      -1.6301    1406.54006      -4.6383      -1.6301
   1406.52480      -5.0375      -1.8560    1406.52480      -5.0375      -1.8560
   1406.50955      -4.3978      -2.0384    1406.50955      -4.3978      -2.0384
   1406.49429      -4.9458      -1.4171    1406.49429      -4.9458      -1.4171
   1406.47903      -4.6976      -1.4091    1406.47903      -4.6976      -1.4091
   1406.46377      -4.4711      -1.9069    1406.46377      -4.4711      -1.9069
   1406.44851      -4.3126      -1.7519    1406.44851      -4.3126      -1.7519
   1406.43325      -4.9801      -1.8733    1406.43325      -4.9801      -1.8733
   1406.41799      -4.9147      -1.4596    1406.41799      -4.9147      -1.4596
   1406.40273      -4.3616      -1.7908    1406.40273      -4.3616      -1.7908
   1406.38748      -4.4633      -1.8237    1406.38748      -4.4633      -1.8237
   1406.37222      -5.2144      -1.8865    1406.37222      -5.2144      -1.8865
   1406.35696      -4.7123      -2.1711    1406.35696      -4.7123      -2.1711
   1406.34170      -4.4828      -1.5254    1406.34170      -4.4828      -1.5254
   1406.32644      -4.8582      -2.1353    1406.32644      -4.8582      -2.1353
   1406.31118      -5.2492      -1.8049    1406.31118      -5.2492      -1.8049
   1406.29592      -4.7451      -1.1384    1406.29592      -4.7451      -1.1384
   1406.28066      -4.6660      -1.9087    1406.28066      -4.6660      -1.9087
   1406.26541      -4.6261      -1.8536    1406.26541      -4.6261      -1.8536
   1406.25015      -4.8877      -1.5967    1406.25015      -4.8877      -1.5967
   1406.23489      -4.8068      -1.7197    1406.23489      -4.8068      -1.7197
   1406.21963      -5.2218      -2.1277    1406.21963      -5.2218      -2.1277
   1406.20437      -4.8620      -1.6608    1406.20437      -4.8620      -1.6608
   1406.18911      -4.8761      -1.7436    1406.18911      -4.8761      -1.7436
   1406.17385      -4.5452      -2.0195    1406.17385      -4.5452      -2.0195
   1406.15859      -4.9882      -1.9822    1406.15859      -4.9882      -1.9822
   1406.14333      -4.9228      -2.1128    1406.14333      -4.9228      -2.1128
   1406.12808      -5.3999      -1.8797    1406.12808      -5.3999      -1.8797
   1406.11282      -4.9199      -1.9437    1406.11282      -4.9199      -1.9437
   1406.09756      -4.7550      -2.0219    1406.09756      -4.7550      -2.0219
   1406.08230      -5.2001      -2.6155    1406.08230      -5.2001      -2.6155
   1406.06704      -4.5292      -1.8241    1406.06704      -4.5292      -1.8241
   1406.05178      -4.6797      -2.1484    1406.05178      -4.6797      -2.1484
   1406.03652      -4.3719      -1.6078    1406.03652      -4.3719      -1.6078
   1406.02126      -4.2679      -1.8554    1406.02126      -4.2679      -1.8554
   1406.00601      -5.1647      -2.4394    1406.00601      -5.1647      -2.4394
   1405.99075      -5.2234      -1.7902    1405.99075      -5.2234      -1.7902
   1405.97549      -5.1261      -1.9742    1405.97549      -5.1261      -1.9742
   1405.96023      -4.8662      -2.2379    1405.96023      -4.8662      -2.2379
   1405.94497      -4.5364      -1.9483    1405.94497      -4.5364      -1.9483
   1405.92971      -4.2485      -2.0229    1405.92971      -4.2485      -2.0229
   1405.91445      -4.7432      -1.8716    1405.91445      -4.7432      -1.8716
   1405.89919      -4.6456      -2.2223    1405.89919      -4.6456      -2.2223
   1405.88394      -4.8159      -1.6795    1405.88394      -4.8159      -1.6795
   1405.86868      -4.4821      -1.8749    1405.86868      -4.4821      -1.8749
   1405.85342      -4.8926      -2.3075    1405.85342      -4.8926      -2.3075
   1405.83816      -4.7142      -2.2094    1405.83816      -4.7142      -2.2094
   1405.82290      -4.6247      -1.9700    1405.82290      -4.6247      -1.9700
   1405.80764      -4.4308      -1.7201    1405.80764      -4.4308      -1.7201
   1405.79238      -4.4991      -2.0117    1405.79238      -4.4991      -2.0117
   1405.77712      -4.6347      -2.3419    1405.77712      -4.6347      -2.3419
   1405.76187      -4.7171      -1.9334    1405.76187      -4.7171      -1.9334
   1405.74661      -4.4867      -1.9793    1405.74661      -4.4867      -1.9793
   1405.73135      -4.3767      -1.7112    1405.73135      -4.3767      -1.7112
   1405.71609      -4.2017      -2.1068    1405.71609      -4.2017      -2.1068
   1405.70083      -4.9459      -2.1670    1405.70083      -4.9459      -2.1670
   1405.68557      -4.7846      -2.0693    1405.68557      -4.7846      -2.0693
   1405.67031      -4.8673      -2.0465    1405.67031      -4.8673      -2.0465
   1405.65505      -4.8309      -1.9469    1405.65505      -4.8309      -1.9469
   1405.63979      -4.3550      -2.0430    1405.63979      -4.3550      -2.0430
   1405.62454      -4.6624      -1.8529    1405.62454      -4.6624      -1.8529
   1405.60928      -5.3593      -2.0740    1405.60928      -5.3593      -2.0740
   1405.59402      -5.2844      -2.2917    1405.59402      -5.2844      -2.2917
   1405.57876      -4.8005      -2.3121    1405.57876      -4.8005      -2.3121
   1405.56350      -4.9188      -2.5108    1405.56350      -4.9188      -2.5108
   1405.54824      -4.9289      -2.5146    1405.54824      -4.9289      -2.5146
   1405.53298      -4.9610      -2.0907    1405.53298      -4.9610      -2.0907
   1405.51772      -4.3959      -2.2080    1405.51772      -4.3959      -2.2080
   1405.50247      -5.2901      -2.1150    1405.50247      -5.2901      -2.1150
   1405.48721      -4.8662      -2.1786    1405.48721      -4.8662      -2.1786
   1405.47195      -4.4559      -2.3273    1405.47195      -4.4559      -2.3273
   1405.45669      -4.7442      -2.2239    1405.45669      -4.7442      -2.2239
   1405.44143      -5.1001      -2.4334    1405.44143      -5.1001      -2.4334
   1405.42617      -4.8828      -2.5801    1405.42617      -4.8828      -2.5801
   1405.41091      -4.4991      -2.4785    1405.41091      -4.4991      -2.4785
   1405.39565      -4.9334      -2.1225    1405.39565      -4.9334      -2.1225
   1405.38040      -3.9329      -2.4667    1405.38040      -3.9329      -2.4667
   1405.36514      -4.5315      -1.8656    1405.36514      -4.5315      -1.8656
   1405.34988      -4.5000      -1.9725    1405.34988      -4.5000      -1.9725
   1405.33462      -4.9796      -1.9914    1405.33462      -4.9796      -1.9914
   1405.31936      -5.0231      -2.4094    1405.31936      -5.0231      -2.4094
   1405.30410      -4.5765      -1.9247    1405.30410      -4.5765      -1.9247
   1405.28884      -4.3795      -2.2420    1405.28884      -4.3795      -2.2420
   1405.27358      -4.4075      -2.2263    1405.27358      -4.4075      -2.2263
   1405.25833      -4.2120      -2.2234    1405.25833      -4.2120      -2.2234
   1405.24307      -4.8637      -1.9439    1405.24307      -4.8637      -1.9439
   1405.22781      -4.6340      -1.8257    1405.22781      -4.6340      -1.8257
   1405.21255      -4.5954      -1.7867    1405.21255      -4.5954      -1.7867
   1405.19729      -5.0733      -2.0190    1405.19729      -5.0733      -2.0190
   1405.18203      -4.6351      -1.8304    1405.18203      -4.6351      -1.8304
   1405.16677      -4.4375      -1.9638    1405.16677      -4.4375      -1.9638
   1405.15151      -4.5720      -1.9108    1405.15151      -4.5720      -1.9108
   1405.13625      -4.9108      -2.4281    1405.13625      -4.9108      -2.4281
   1405.12100      -5.0722      -2.5475    1405.12100      -5.0722      -2.5475
   1405.10574      -4.8764      -1.9713    1405.10574      -4.8764      -1.9713
   1405.09048      -4.6363      -1.6580    1405.09048      -4.6363      -1.6580
   1405.07522      -4.7532      -1.8522    1405.07522      -4.7532      -1.8522
   1405.05996      -4.2375      -1.8762    1405.05996      -4.2375      -1.8762
   1405.04470      -5.1209      -1.7070    1405.04470      -5.1209      -1.7070
   1405.02944      -5.3126      -2.0888    1405.02944      -5.3126      -2.0888
   1405.01418      -5.1612      -1.8964    1405.01418      -5.1612      -1.8964
   1404.99893      -4.6070      -1.9094    1404.99893      -4.6070      -1.9094
   1404.98367      -4.4465      -1.6174    1404.98367      -4.4465      -1.6174
   1404.96841      -4.7808      -2.0821    1404.96841      -4.7808      -2.0821
   1404.95315      -4.6570      -2.3510    1404.95315      -4.6570      -2.3510
   1404.93789      -4.5739      -2.0831    1404.93789      -4.5739      -2.0831
   1404.92263      -4.8017      -1.6787    1404.92263      -4.8017      -1.6787
   1404.90737      -4.6260      -2.1671    1404.90737      -4.6260      -2.1671
   1404.89211      -4.3896      -2.3110    1404.89211      -4.3896      -2.3110
   1404.87686      -4.8388      -1.7849    1404.87686      -4.8388      -1.7849
   1404.86160      -4.6569      -2.0841    1404.86160      -4.6569      -2.0841
   1404.84634      -4.8839      -1.9707    1404.84634      -4.8839      -1.9707
   1404.83108      -5.1392      -2.1534    1404.83108      -5.1392      -2.1534
   1404.81582      -4.3748      -1.6276    1404.81582      -4.3748      -1.6276
   1404.80056      -4.2130      -1.6484    1404.80056      -4.2130      -1.6484
   1404.78530      -4.6275      -1.5785    1404.78530      -4.6275      -1.5785
   1404.77004      -4.4144      -2.1826    1404.77004      -4.4144      -2.1826
   1404.75479      -5.0197      -2.0097    1404.75479      -5.0197      -2.0097
   1404.73953      -5.0934      -2.1129    1404.73953      -5.0934      -2.1129
   1404.72427      -5.1484      -2.2734    1404.72427      -5.1484      -2.2734
   1404.70901      -4.7192      -2.2029    1404.70901      -4.7192      -2.2029
   1404.69375      -4.2112      -2.4211    1404.69375      -4.2112      -2.4211
   1404.67849      -5.0392      -2.2754    1404.67849      -5.0392      -2.2754
   1404.66323      -4.9161      -2.2612    1404.66323      -4.9161      -2.2612
   1404.64797      -3.8342      -2.2584    1404.64797      -3.8342      -2.2584
   1404.63271      -4.8148      -2.0510    1404.63271      -4.8148      -2.0510
   1404.61746      -4.0727      -2.3084    1404.61746      -4.0727      -2.3084
   1404.60220      -3.8155      -2.0330    1404.60220      -3.8155      -2.0330
   1404.58694      -4.1663      -2.1454    1404.58694      -4.1663      -2.1454
   1404.57168      -4.9621      -2.0620    1404.57168      -4.9621      -2.0620
   1404.55642      -5.1606      -1.9888    1404.55642      -5.1606      -1.9888
   1404.54116      -4.0925      -2.1246    1404.54116      -4.0925      -2.1246
   1404.52590      -4.6538      -2.0066    1404.52590      -4.6538      -2.0066
   1404.51064      -4.3510      -2.2925    1404.51064      -4.3510      -2.2925
   1404.49539      -5.1854      -1.9803    1404.49539      -5.1854      -1.9803
   1404.48013      -4.5808      -2.2357    1404.48013      -4.5808      -2.2357
   1404.46487      -4.2489      -1.5992    1404.46487      -4.2489      -1.5992
   1404.44961      -4.4995      -2.0541    1404.44961      -4.4995      -2.0541
   1404.43435      -4.4963      -2.2258    1404.43435      -4.4963      -2.2258
   1404.41909      -4.0506      -2.0242    1404.41909      -4.0506      -2.0242
   1404.40383      -4.5076      -2.1963    1404.40383      -4.5076      -2.1963
   1404.38857      -4.5804      -2.0513    1404.38857      -4.5804      -2.0513
   1404.37332      -3.7924      -2.2645    1404.37332      -3.7924      -2.2645
   1404.35806      -4.0350      -2.2066    1404.35806      -4.0350      -2.2066
   1404.34280      -4.7006      -2.1848    1404.34280      -4.7006      -2.1848
   1404.32754      -4.7691      -2.0139    1404.32754      -4.7691      -2.0139
   1404.31228      -5.0616      -2.4190    1404.31228      -5.0616      -2.4190
   1404.29702      -4.8709      -2.2451    1404.29702      -4.8709      -2.2451
   1404.28176      -4.3563      -2.1880    1404.28176      -4.3563      -2.1880
   1404.26650      -4.0094      -2.0455    1404.26650      -4.0094      -2.0455
   1404.25125      -3.8122      -1.9618    1404.25125      -3.8122      -1.9618
   1404.23599      -4.4811      -2.2767    1404.23599      -4.4811      -2.2767
   1404.22073      -4.6812      -2.4424    1404.22073      -4.6812      -2.4424
   1404.20547      -4.4036      -1.8445    1404.20547      -4.4036      -1.8445
   1404.19021      -4.8538      -2.2357    1404.19021      -4.8538      -2.2357
   1404.17495      -4.9495      -1.9699    1404.17495      -4.9495      -1.9699
   1404.15969      -3.6606      -2.1350    1404.15969      -3.6606      -2.1350
   1404.14443      -4.7817      -2.2394    1404.14443      -4.7817      -2.2394
   1404.12917      -3.9429      -2.0337    1404.12917      -3.9429      -2.0337
   1404.11392      -4.4441      -2.4999    1404.11392      -4.4441      -2.4999
   1404.09866      -4.2751      -2.4851    1404.09866      -4.2751      -2.4851
   1404.08340      -4.2609      -1.9856    1404.08340      -4.2609      -1.9856
   1404.06814      -4.3480      -2.4184    1404.06814      -4.3480      -2.4184
   1404.05288      -4.3918      -2.4339    1404.05288      -4.3918      -2.4339
   1404.03762      -4.0893      -2.1837    1404.03762      -4.0893      -2.1837
   1404.02236      -4.0149      -2.2128    1404.02236      -4.0149      -2.2128
   1404.00710      -4.2461      -2.2486    1404.00710      -4.2461      -2.2486
   1403.99185      -4.3318      -2.2918    1403.99185      -4.3318      -2.2918
   1403.97659      -4.9279      -1.9652    1403.97659      -4.9279      -1.9652
   1403.96133      -4.6699      -2.0358    1403.96133      -4.6699      -2.0358
   1403.94607      -4.5041      -1.9760    1403.94607      -4.5041      -1.9760
   1403.93081      -4.0479      -2.0631    1403.93081      -4.0479      -2.0631
   1403.91555      -4.5435      -2.2015    1403.91555      -4.5435      -2.2015
   1403.90029      -4.7342      -2.0318    1403.90029      -4.7342      -2.0318
   1403.88503      -4.4047      -2.2307    1403.88503      -4.4047      -2.2307
   1403.86978      -4.1411      -1.9171    1403.86978      -4.1411      -1.9171
   1403.85452      -4.2616      -2.5059    1403.85452      -4.2616      -2.5059
   1403.83926      -3.7566      -2.2383    1403.83926      -3.7566      -2.2383
   1403.82400      -4.3908      -2.0120    1403.82400      -4.3908      -2.0120
   1403.80874      -4.4413      -1.9521    1403.80874      -4.4413      -1.9521
   1403.79348      -4.1752      -2.2669    1403.79348      -4.1752      -2.2669
   1403.77822      -4.1698      -2.2725    1403.77822      -4.1698      -2.2725
   1403.76296      -4.1775      -1.6639    1403.76296      -4.1775      -1.6639
   1403.74771      -4.5725      -2.0951    1403.74771      -4.5725      -2.0951
   1403.73245      -4.1828      -2.2474    1403.73245      -4.1828      -2.2474
   1403.71719      -4.3215      -2.3048    1403.71719      -4.3215      -2.3048
   1403.70193      -4.3361      -2.0902    1403.70193      -4.3361      -2.0902
   1403.68667      -4.3574      -2.0162    1403.68667      -4.3574      -2.0162
   1403.67141      -3.9610      -1.7218    1403.67141      -3.9610      -1.7218
   1403.65615      -4.0856      -1.6487    1403.65615      -4.0856      -1.6487
   1403.64089      -4.6841      -1.8088    1403.64089      -4.6841      -1.8088
   1403.62563      -4.2731      -2.3404    1403.62563      -4.2731      -2.3404
   1403.61038      -4.4930      -1.5015    1403.61038      -4.4930      -1.5015
   1403.59512      -4.3250      -1.7044    1403.59512      -4.3250      -1.7044
   1403.57986      -4.5098      -2.1964    1403.57986      -4.5098      -2.1964
   1403.56460      -4.3655      -2.3205    1403.56460      -4.3655      -2.3205
   1403.54934      -4.1088      -1.8341    1403.54934      -4.1088      -1.8341
   1403.53408      -4.4453      -1.7970    1403.53408      -4.4453      -1.7970
   1403.51882      -4.4833      -2.0370    1403.51882      -4.4833      -2.0370
   1403.50356      -4.3315      -2.0297    1403.50356      -4.3315      -2.0297
   1403.48831      -4.5975      -2.0563    1403.48831      -4.5975      -2.0563
   1403.47305      -4.3672      -1.8389    1403.47305      -4.3672      -1.8389
   1403.45779      -4.2794      -2.1167    1403.45779      -4.2794      -2.1167
   1403.44253      -4.3882      -1.8386    1403.44253      -4.3882      -1.8386
   1403.42727      -4.8377      -2.1899    1403.42727      -4.8377      -2.1899
   1403.41201      -4.0114      -2.1359    1403.41201      -4.0114      -2.1359
   1403.39675      -4.1820      -1.9366    1403.39675      -4.1820      -1.9366
   1403.38149      -4.4671      -2.1517    1403.38149      -4.4671      -2.1517
   1403.36624      -3.5266      -1.3184    1403.36624      -3.5266      -1.3184
   1403.35098      -4.5987      -1.5845    1403.35098      -4.5987      -1.5845
   1403.33572      -4.2447      -1.6647    1403.33572      -4.2447      -1.6647
   1403.32046      -4.5791      -2.0020    1403.32046      -4.5791      -2.0020
   1403.30520      -4.0352      -1.9353    1403.30520      -4.0352      -1.9353
   1403.28994      -4.2244      -1.6902    1403.28994      -4.2244      -1.6902
   1403.27468      -4.3457      -1.6186    1403.27468      -4.3457      -1.6186
   1403.25942      -4.6762      -1.7156    1403.25942      -4.6762      -1.7156
   1403.24417      -4.1185      -1.4396    1403.24417      -4.1185      -1.4396
   1403.22891      -3.9772      -1.8871    1403.22891      -3.9772      -1.8871
   1403.21365      -4.0620      -1.5569    1403.21365      -4.0620      -1.5569
   1403.19839      -3.7415      -1.3770    1403.19839      -3.7415      -1.3770
   1403.18313      -3.8921      -1.9287    1403.18313      -3.8921      -1.9287
   1403.16787      -4.0555      -1.3812    1403.16787      -4.0555      -1.3812
   1403.15261      -3.9419      -0.8413    1403.15261      -3.9419      -0.8413
   1403.13735      -4.5875      -1.8828    1403.13735      -4.5875      -1.8828
   1403.12209      -4.3614      -1.3934    1403.12209      -4.3614      -1.3934
   1403.10684      -4.7410      -1.6978    1403.10684      -4.7410      -1.6978
   1403.09158      -4.4078      -1.5090    1403.09158      -4.4078      -1.5090
   1403.07632      -3.9808      -1.9860    1403.07632      -3.9808      -1.9860
   1403.06106      -4.1009      -1.3920    1403.06106      -4.1009      -1.3920
   1403.04580      -4.4794      -1.4088    1403.04580      -4.4794      -1.4088
   1403.03054      -4.3607      -1.4358    1403.03054      -4.3607      -1.4358
   1403.01528      -3.7876      -1.6420    1403.01528      -3.7876      -1.6420
   1403.00002      -4.0925      -1.6419    1403.00002      -4.0925      -1.6419
   1402.98477      -3.5756      -1.2260    1402.98477      -3.5756      -1.2260
   1402.96951      -4.1008      -1.5292    1402.96951      -4.1008      -1.5292
   1402.95425      -3.8406      -1.7507    1402.95425      -3.8406      -1.7507
   1402.93899      -4.3068      -1.4319    1402.93899      -4.3068      -1.4319
   1402.92373      -4.0338      -1.1855    1402.92373      -4.0338      -1.1855
   1402.90847      -3.9844      -1.7901    1402.90847      -3.9844      -1.7901
   1402.89321      -3.9246      -1.5100    1402.89321      -3.9246      -1.5100
   1402.87795      -3.8824      -1.5692    1402.87795      -3.8824      -1.5692
   1402.86270      -4.0657      -2.0318    1402.86270      -4.0657      -2.0318
   1402.84744      -4.1174      -1.7835    1402.84744      -4.1174      -1.7835
   1402.83218      -4.0323      -1.2113    1402.83218      -4.0323      -1.2113
   1402.81692      -4.3281      -1.7565    1402.81692      -4.3281      -1.7565
   1402.80166      -4.8191      -1.4631    1402.80166      -4.8191      -1.4631
   1402.78640      -3.9658      -1.2371    1402.78640      -3.9658      -1.2371
   1402.77114      -4.6066      -1.6092    1402.77114      -4.6066      -1.6092
   1402.75588      -3.9346      -2.0322    1402.75588      -3.9346      -2.0322
   1402.74062      -3.9939      -1.4497    1402.74062      -3.9939      -1.4497
   1402.72537      -4.1751      -1.3598    1402.72537      -4.1751      -1.3598
   1402.71011      -4.0855      -1.7264    1402.71011      -4.0855      -1.7264
   1402.69485      -3.8568      -1.2077    1402.69485      -3.8568      -1.2077
   1402.67959      -3.7750      -1.2285    1402.67959      -3.7750      -1.2285
   1402.66433      -4.2215      -1.6437    1402.66433      -4.2215      -1.6437
   1402.64907      -3.6567      -2.3167    1402.64907      -3.6567      -2.3167
   1402.63381      -3.9391      -0.9780    1402.63381      -3.9391      -0.9780
   1402.61855      -4.5583      -1.2557    1402.61855      -4.5583      -1.2557
   1402.60330      -4.1872      -1.0678    1402.60330      -4.1872      -1.0678
   1402.58804      -3.9476      -1.0687    1402.58804      -3.9476      -1.0687
   1402.57278      -3.8911      -1.4973    1402.57278      -3.8911      -1.4973
   1402.55752      -4.3562      -1.6800    1402.55752      -4.3562      -1.6800
   1402.54226      -4.2896      -1.2663    1402.54226      -4.2896      -1.2663
   1402.52700      -4.2159      -1.2780    1402.52700      -4.2159      -1.2780
   1402.51174      -3.8931      -1.4196    1402.51174      -3.8931      -1.4196
   1402.49648      -4.4523      -1.3709    1402.49648      -4.4523      -1.3709
   1402.48123      -3.7488      -1.1405    1402.48123      -3.7488      -1.1405
   1402.46597      -4.0415      -1.7337    1402.46597      -4.0415      -1.7337
   1402.45071      -3.4059      -0.8779    1402.45071      -3.4059      -0.8779
   1402.43545      -4.1808      -1.5238    1402.43545      -4.1808      -1.5238
   1402.42019      -4.7731      -0.9257    1402.42019      -4.7731      -0.9257
   1402.40493      -3.5809      -1.4603    1402.40493      -3.5809      -1.4603
   1402.38967      -4.3650      -1.1746    1402.38967      -4.3650      -1.1746
   1402.37441      -4.2600      -0.9896    1402.37441      -4.2600      -0.9896
   1402.35916      -3.8436      -1.8253    1402.35916      -3.8436      -1.8253
   1402.34390      -4.0970      -0.6510    1402.34390      -4.0970      -0.6510
   1402.32864      -4.2702      -1.0151    1402.32864      -4.2702      -1.0151
   1402.31338      -4.5008      -1.0334    1402.31338      -4.5008      -1.0334
   1402.29812      -4.1008      -1.0162    1402.29812      -4.1008      -1.0162
   1402.28286      -4.1054      -0.8021    1402.28286      -4.1054      -0.8021
   1402.26760      -4.4813      -1.0777    1402.26760      -4.4813      -1.0777
   1402.25234      -4.6077      -1.2403    1402.25234      -4.6077      -1.2403
   1402.23708      -3.9783      -1.0166    1402.23708      -3.9783      -1.0166
   1402.22183      -4.5320      -1.2079    1402.22183      -4.5320      -1.2079
   1402.20657      -4.2605      -0.7129    1402.20657      -4.2605      -0.7129
   1402.19131      -4.1150      -1.3450    1402.19131      -4.1150      -1.3450
   1402.17605      -3.8523      -0.7438    1402.17605      -3.8523      -0.7438
   1402.16079      -3.9883      -1.0521    1402.16079      -3.9883      -1.0521
   1402.14553      -3.9096      -0.8221    1402.14553      -3.9096      -0.8221
   1402.13027      -3.6473      -1.1557    1402.13027      -3.6473      -1.1557
   1402.11501      -4.5384      -1.1914    1402.11501      -4.5384      -1.1914
   1402.09976      -4.2008      -0.9862    1402.09976      -4.2008      -0.9862
   1402.08450      -4.5184      -1.0518    1402.08450      -4.5184      -1.0518
   1402.06924      -3.5374      -0.8248    1402.06924      -3.5374      -0.8248
   1402.05398      -3.4191      -0.9453    1402.05398      -3.4191      -0.9453
   1402.03872      -4.1852      -1.0831    1402.03872      -4.1852      -1.0831
   1402.02346      -4.5244      -1.6197    1402.02346      -4.5244      -1.6197
   1402.00820      -3.5439      -0.4111    1402.00820      -3.5439      -0.4111
   1401.99294      -3.9846      -1.5235    1401.99294      -3.9846      -1.5235
   1401.97769      -4.0300      -1.2639    1401.97769      -4.0300      -1.2639
   1401.96243      -3.6997      -1.2290    1401.96243      -3.6997      -1.2290
   1401.94717      -4.8575      -0.6812    1401.94717      -4.8575      -0.6812
   1401.93191      -4.7198      -0.7758    1401.93191      -4.7198      -0.7758
   1401.91665      -4.0940      -0.6411    1401.91665      -4.0940      -0.6411
   1401.90139      -4.3333      -0.8702    1401.90139      -4.3333      -0.8702
   1401.88613      -4.7559      -1.0148    1401.88613      -4.7559      -1.0148
   1401.87087      -4.7714      -0.7315    1401.87087      -4.7714      -0.7315
   1401.85562      -4.7422      -0.6389    1401.85562      -4.7422      -0.6389
   1401.84036      -3.9174      -1.1911    1401.84036      -3.9174      -1.1911
   1401.82510      -3.9471      -0.8701    1401.82510      -3.9471      -0.8701
   1401.80984      -4.0412      -1.1221    1401.80984      -4.0412      -1.1221
   1401.79458      -3.9039      -1.0891    1401.79458      -3.9039      -1.0891
   1401.77932      -4.1782      -0.6256    1401.77932      -4.1782      -0.6256
   1401.76406      -4.1512      -0.7799    1401.76406      -4.1512      -0.7799
   1401.74880      -3.5118      -0.5821    1401.74880      -3.5118      -0.5821
   1401.73354      -5.0290      -0.7794    1401.73354      -5.0290      -0.7794
   1401.71829      -3.6340      -0.8450    1401.71829      -3.6340      -0.8450
   1401.70303      -4.8582      -0.8477    1401.70303      -4.8582      -0.8477
   1401.68777      -4.2214      -0.7604    1401.68777      -4.2214      -0.7604
   1401.67251      -4.3297      -0.5175    1401.67251      -4.3297      -0.5175
   1401.65725      -4.0716      -0.9421    1401.65725      -4.0716      -0.9421
   1401.64199      -3.9303      -0.3130    1401.64199      -3.9303      -0.3130
   1401.62673      -3.3567      -0.9483    1401.62673      -3.3567      -0.9483
   1401.61147      -3.8642      -0.8383    1401.61147      -3.8642      -0.8383
   1401.59622      -4.4959      -0.9306    1401.59622      -4.4959      -0.9306
